"trial_type","trial_index","time_elapsed","internal_node_id","participant_id","rt","stimulus","response","data_type","consented","demo_name","demo_gender","demo_age","robot_avatar","condition_index","robot_index","robot_style","trial_number","global_trial_number","stim_file","correct_answer","guess_1","guess_1_correct","guess_1_confidence","guess_2","guess_2_correct","guess_2_confidence","guess_1_rt","guess_2_rt","chatroom_rt","guess_2_confidence_rt","godspeed_1","godspeed_2","godspeed_3","godspeed_4","godspeed_5","godspeed_6","godspeed_7","godspeed_8","godspeed_9","trust","mai_1","mai_2","mai_3","mai_4","mai_5","mai_6","mai_7","mai_8","mai_9","mai_10","mai_11","mai_12","mai_13","mai_14","mai_15","mai_16","mai_17","mai_18","mai_19","mai_20","mai_21","mai_22","mai_23","mai_24","mai_25","mai_26","mai_27","mai_28","mai_29","mai_30","mai_31","mai_32","mai_33","mai_34","mai_35","mai_36","mai_37","mai_38","mai_39","mai_40","mai_41","mai_42","mai_43","mai_44","mai_45","mai_46","mai_47","mai_48","mai_49","mai_50","mai_51","mai_52"
"pavlovia","0","2554","0.0-0.0","P1779430357950_IX08FB","","","","","","","","","","","","","","","","","","","","","","","","","","","","","","","","","","","","","","","","","","","","","","","","","","","","","","","","","","","","","","","","","","","","","","","","","","","","","","","","","","","","","","","",""
"html-button-response","1","23801","0.0-1.0","P1779430357950_IX08FB","21244","
      <div style=""max-width:680px;margin:0 auto;padding:30px 20px;line-height:1.9;font-size:15px;"">
        <h2 style=""margin-bottom:24px;"">歡迎參加本實驗！</h2>
        <p>本實驗旨在了解對地景的判斷，及與機器人共同完成作業的決策歷程。本實驗包含三個部分：<br>
        （一）個人資料填答<br>
        （二）猜測地景拍攝地點的主要實驗<br>
        （三）後測問卷</p>
        <p style=""color:#c0392b;"">注意，本實驗無回上一頁選項，在實驗各階段，皆請務必確認答案再進入下一頁。</p>
        <p>以上資訊若有問題請來信聯絡實驗聯絡人，若確認了解並同意以上資訊，請勾選同意，並按確認鍵開始填答基本資料。</p>
        <label style=""display:flex;align-items:center;justify-content:center;gap:10px;margin-top:20px;font-size:15px;cursor:pointer;"">
          <input type=""checkbox"" id=""consent-check"" style=""width:20px;height:20px;cursor:pointer;"">
          我同意參與本實驗
        </label>
      </div>","0","consent","true","","","","","","","","","","","","","","","","","","","","","","","","","","","","","","","","","","","","","","","","","","","","","","","","","","","","","","","","","","","","","","","","","","","","","","","","","","","","","","","","","","",""
"html-button-response","2","44711","0.0-2.0","P1779430357950_IX08FB","20908","
      <div style=""max-width:680px;margin:0 auto;padding:30px 20px;line-height:1.9;font-size:15px;"">
        <h3 style=""font-weight:bold;margin-bottom:24px;"">第一部分：個人資料</h3>
        <div style=""display:flex;align-items:center;gap:14px;margin:14px 0;"">
          <label style=""min-width:140px;font-size:15px;""><strong>您的姓名（選填）：</strong></label>
          <input type=""text"" id=""demo-name"" placeholder=""請輸入""
            style=""width:260px;padding:6px 10px;font-size:15px;border:0;border-bottom:1px solid #999;outline:none;background:transparent;"">
        </div>
        <div style=""display:flex;align-items:center;gap:14px;margin:14px 0;"">
          <label style=""min-width:140px;font-size:15px;""><strong>性別（必填）：</strong></label>
          <div style=""display:flex;gap:20px;"">
            <label style=""cursor:pointer;white-space:nowrap;""><input type=""radio"" name=""demo-gender"" value=""生理女""> 生理女</label>
            <label style=""cursor:pointer;white-space:nowrap;""><input type=""radio"" name=""demo-gender"" value=""生理男""> 生理男</label>
            <label style=""cursor:pointer;white-space:nowrap;""><input type=""radio"" name=""demo-gender"" value=""不願透露""> 不願透露</label>
          </div>
        </div>
        <div style=""display:flex;align-items:center;gap:14px;margin:14px 0;"">
          <label style=""min-width:140px;font-size:15px;""><strong>年齡（必填）：</strong></label>
          <input type=""number"" id=""demo-age"" min=""1"" max=""120"" step=""1"" placeholder=""請輸入""
            style=""width:100px;padding:6px 10px;font-size:15px;border:0;border-bottom:1px solid #999;outline:none;background:transparent;"">
          <span id=""age-error"" style=""color:#c0392b;font-size:13px;margin-left:8px;display:none;"">請輸入正整數</span>
        </div>
      </div>","0","demographics","","劉玥廷","生理女","22","","","","","","","","","","","","","","","","","","","","","","","","","","","","","","","","","","","","","","","","","","","","","","","","","","","","","","","","","","","","","","","","","","","","","","","","","","","","","","","",""
"html-button-response","3","50793","0.0-3.0","P1779430357950_IX08FB","6081","
      <div style=""max-width:680px;margin:0 auto;padding:30px 20px;line-height:1.9;font-size:15px;"">
        <h3 style=""font-weight:bold;margin-bottom:16px;"">第二部分：正式實驗</h3>
        <p>在本部分的實驗中，您需要觀看一些地景照片，並從四個選項中選擇您認為正確的拍攝地點，之後選擇您對該猜測的信心程度，確定您的選擇後，請按確認進入下一頁。</p>
        <p>了解以上資訊後，請按確認鍵開始練習以上部分的實驗。</p>
      </div>","0","instruction","","","","","","","","","","","","","","","","","","","","","","","","","","","","","","","","","","","","","","","","","","","","","","","","","","","","","","","","","","","","","","","","","","","","","","","","","","","","","","","","","","","",""
"html-button-response","4","66199","0.0-4.0","P1779430357950_IX08FB","15404","
      <div style=""text-align:center;padding-bottom:60px;"">
        <img src=""final_stimfile/arabia_sheikh_zayed_palace.jpg"" class=""stim-trial"" alt=""練習圖片"">
        <p style=""margin-top:14px;"">請猜測您認為這張照片最可能拍攝的地點</p>
      </div>","1","practice","","","","","","","","","","","","","","","","","","","","","","","","","","","","","","","","","","","","","","","","","","","","","","","","","","","","","","","","","","","","","","","","","","","","","","","","","","","","","","","","","","","",""
"html-button-response","5","71455","0.0-5.0","P1779430357950_IX08FB","5255","
        <div style=""text-align:center;padding-bottom:60px;"">
          <img src=""final_stimfile/arabia_sheikh_zayed_palace.jpg"" class=""stim-trial"" alt=""練習圖片"">
          <p style=""margin-top:14px;"">您剛才選擇的答案是 <strong>摩洛哥</strong>，請問您對此選項的信心如何？</p>
          <p style=""color:#888;font-size:13px;"">（1 分 = 非常沒信心；5 分 = 非常有信心）</p>
        </div>","1","practice","","","","","","","","","","","","","","","","","","","","","","","","","","","","","","","","","","","","","","","","","","","","","","","","","","","","","","","","","","","","","","","","","","","","","","","","","","","","","","","","","","","",""
"html-button-response","6","76777","0.0-6.0","P1779430357950_IX08FB","5320","
      <div style=""max-width:680px;margin:0 auto;padding:30px 20px;line-height:1.9;font-size:15px;"">
        <p>每一題在您完成如先前頁面的選擇後，會展示一段機器人關於本題的作答想法。</p>
        <p style=""color:#c0392b;"">注意：本機器人訓練時模擬人類回應行為，因此答案未必完全正確，請務必仔細評估內容及答案之後再決定是否採用機器人答案。</p>
        <p>在觀看完機器人的作答想法後，會請您再次猜測本題答案，並評估您對答案的信心程度。</p>
        <p>了解以上資訊後，請按確認鍵開始練習以上部分的實驗。</p>
      </div>","0","instruction","","","","","","","","","","","","","","","","","","","","","","","","","","","","","","","","","","","","","","","","","","","","","","","","","","","","","","","","","","","","","","","","","","","","","","","","","","","","","","","","","","","",""
"html-button-response","7","90807","0.0-7.0","P1779430357950_IX08FB","14029","
      <div style=""display:flex;height:calc(100vh - 130px);min-height:400px;"">

        <!-- ── Left 50 %: stimulus image ── -->
        <div style=""flex:0 0 50%;display:flex;align-items:center;justify-content:center;padding:28px 16px 28px 28px;"">
          <img src=""final_stimfile/arabia_sheikh_zayed_palace.jpg""
               style=""max-width:100%;max-height:100%;object-fit:contain;border-radius:6px;""
               alt=""刺激圖片"">
        </div>

        <!-- ── Right 50 %: top (avatar) + bottom (chat) ── -->
        <div style=""flex:1;display:flex;flex-direction:column;padding:16px 28px 16px 16px;min-width:0;"">

          <!-- Top 40 %: robot avatar, centred -->
          <div style=""flex:0 0 40%;display:flex;flex-direction:column;align-items:center;justify-content:center;gap:10px;"">
            <img src=""stimulus/level1.png""
                 style=""width:120px;height:120px;object-fit:contain;border-radius:50%;""
                 alt="""">
            <span style=""font-size:14px;color:#555;"">練習機器人</span>
          </div>

          <!-- Bottom 60 %: chat messages -->
          <div style=""flex:1;overflow-y:auto;padding-top:6px;"">
            <div class=""chat-messages"" id=""chat-msg-area""></div>
          </div>

        </div>
      </div>","0","page3","","","","","","","","","","","","","","","","","","","","","","","","","","","","","","","","","","","","","","","","","","","","","","","","","","","","","","","","","","","","","","","","","","","","","","","","","","","","","","","","","","","",""
"html-button-response","8","116587","0.0-8.0","P1779430357950_IX08FB","25778","
        <div style=""text-align:center;padding-bottom:60px;"">
          <img src=""final_stimfile/arabia_sheikh_zayed_palace.jpg"" class=""stim-trial"" alt=""練習圖片"">
          <p style=""margin-top:14px;"">
            您上次選擇的是 <strong>摩洛哥</strong>，
            機器人認為這裡是 <strong>阿拉伯聯合大公國</strong>，<br>
            請再次猜測您認為這張照片最可能拍攝的地點
          </p>
        </div>","1","practice","","","","","","","","","","","","","","","","","","","","","","","","","","","","","","","","","","","","","","","","","","","","","","","","","","","","","","","","","","","","","","","","","","","","","","","","","","","","","","","","","","","",""
"html-button-response","9","120755","0.0-9.0","P1779430357950_IX08FB","4167","
        <div style=""text-align:center;padding-bottom:60px;"">
          <img src=""final_stimfile/arabia_sheikh_zayed_palace.jpg"" class=""stim-trial"" alt=""練習圖片"">
          <p style=""margin-top:14px;"">您剛才選擇的答案是 <strong>摩洛哥</strong>，請問您對此選項的信心如何？</p>
          <p style=""color:#888;font-size:13px;"">（1 分 = 非常沒信心；5 分 = 非常有信心）</p>
        </div>","1","practice","","","","","","","","","","","","","","","","","","","","","","","","","","","","","","","","","","","","","","","","","","","","","","","","","","","","","","","","","","","","","","","","","","","","","","","","","","","","","","","","","","","",""
"html-button-response","10","122961","0.0-10.0","P1779430357950_IX08FB","2205","
      <div style=""max-width:680px;margin:0 auto;padding:30px 20px;line-height:1.9;font-size:15px;"">
        <p style=""color:#c0392b;"">本實驗共有四輪，每輪有十五張圖。不同輪次之間，會由不同的機器人提供作答想法。</p>
        <p>每一輪於十五張圖片回答完成後，會請您評估一些關於本輪機器人的看法。</p>
        <p>若以上資訊有問題，可來信詢問實驗者，若無其他疑問，請按確認開始正式實驗。</p>
      </div>","0","instruction","","","","","","","","","","","","","","","","","","","","","","","","","","","","","","","","","","","","","","","","","","","","","","","","","","","","","","","","","","","","","","","","","","","","","","","","","","","","","","","","","","","",""
"html-button-response","11","124275","0.0-11.0","P1779430357950_IX08FB","1313","
      <div class=""page-wrap"">
        <h2>第 1 / 4 段</h2>
        <p style=""font-size:18px;color:#555;"">休息一下，準備好後請按「下一頁」繼續</p>
      </div>","0","rest","","","","","","","","","","","","","","","","","","","","","","","","","","","","","","","","","","","","","","","","","","","","","","","","","","","","","","","","","","","","","","","","","","","","","","","","","","","","","","","","","","","",""
"html-button-response","12","131743","0.0-12.0","P1779430357950_IX08FB","7468","
      <div class=""page-wrap"">
        <p style=""font-size:18px;"">接下來您將與以下機器人進行對話</p>
        <img src=""stimulus/level4.png""
             class=""robot-intro-img"" alt=""機器人頭像"">
        <p style=""font-size:14px;color:#888;margin-top:14px;"">請等待五秒後，點按下一頁</p>
      </div>","0","robot_intro","","","","","level4","","","","","","","","","","","","","","","","","","","","","","","","","","","","","","","","","","","","","","","","","","","","","","","","","","","","","","","","","","","","","","","","","","","","","","","","","","","","","","",""
"html-button-response","13","208339","0.0-13.0","P1779430357950_IX08FB","76594","
      <div style=""text-align:center;padding-bottom:60px;"">
        <img src=""final_stimfile/argentina_01_antigua_estacion_trelew_3.jpg"" class=""stim-trial"" alt=""刺激圖片"">
        <p style=""margin-top:14px;"">請猜測您認為這張照片最可能拍攝的地點</p>
      </div>
    <div class=""progress-wrap"">
      <div class=""progress-label"">第 1 段&emsp;1 / 10</div>
      <div class=""progress-track"">
        <div class=""progress-fill"" style=""width:10%""></div>
      </div>
    </div>","2","page1","","","","","","","","","","","","","","","","","","","","","","","","","","","","","","","","","","","","","","","","","","","","","","","","","","","","","","","","","","","","","","","","","","","","","","","","","","","","","","","","","","","",""
"html-button-response","14","211237","0.0-14.0","P1779430357950_IX08FB","2897","
        <div style=""text-align:center;padding-bottom:60px;"">
          <img src=""final_stimfile/argentina_01_antigua_estacion_trelew_3.jpg"" class=""stim-trial"" alt=""刺激圖片"">
          <p style=""margin-top:14px;"">您剛才選擇的答案是 <strong>日本</strong>，請問您對此選項的信心如何？</p>
          <p style=""color:#888;font-size:13px;"">（1 分 = 非常沒信心；5 分 = 非常有信心）</p>
        </div>
    <div class=""progress-wrap"">
      <div class=""progress-label"">第 1 段&emsp;1 / 10</div>
      <div class=""progress-track"">
        <div class=""progress-fill"" style=""width:10%""></div>
      </div>
    </div>","1","page2","","","","","","","","","","","","","","","","","","","","","","","","","","","","","","","","","","","","","","","","","","","","","","","","","","","","","","","","","","","","","","","","","","","","","","","","","","","","","","","","","","","",""
"html-button-response","15","225868","0.0-15.0","P1779430357950_IX08FB","14629","
      <div style=""display:flex;height:calc(100vh - 130px);min-height:400px;"">

        <!-- ── Left 50 %: stimulus image ── -->
        <div style=""flex:0 0 50%;display:flex;align-items:center;justify-content:center;padding:28px 16px 28px 28px;"">
          <img src=""final_stimfile/argentina_01_antigua_estacion_trelew_3.jpg""
               style=""max-width:100%;max-height:100%;object-fit:contain;border-radius:6px;""
               alt=""刺激圖片"">
        </div>

        <!-- ── Right 50 %: top (avatar) + bottom (chat) ── -->
        <div style=""flex:1;display:flex;flex-direction:column;padding:16px 28px 16px 16px;min-width:0;"">

          <!-- Top 40 %: robot avatar, centred -->
          <div style=""flex:0 0 40%;display:flex;flex-direction:column;align-items:center;justify-content:center;gap:10px;"">
            <img src=""stimulus/level4.png""
                 style=""width:120px;height:120px;object-fit:contain;border-radius:50%;""
                 alt="""">
            <span style=""font-size:14px;color:#555;"">機器人 A</span>
          </div>

          <!-- Bottom 60 %: chat messages -->
          <div style=""flex:1;overflow-y:auto;padding-top:6px;"">
            <div class=""chat-messages"" id=""chat-msg-area""></div>
          </div>

        </div>
      </div>
    <div class=""progress-wrap"">
      <div class=""progress-label"">第 1 段&emsp;1 / 10</div>
      <div class=""progress-track"">
        <div class=""progress-fill"" style=""width:10%""></div>
      </div>
    </div>","0","page3","","","","","","","","","","","","","","","","","","","","","","","","","","","","","","","","","","","","","","","","","","","","","","","","","","","","","","","","","","","","","","","","","","","","","","","","","","","","","","","","","","","",""
"html-button-response","16","287478","0.0-16.0","P1779430357950_IX08FB","61610","
        <div style=""text-align:center;padding-bottom:60px;"">
          <img src=""final_stimfile/argentina_01_antigua_estacion_trelew_3.jpg"" class=""stim-trial"" alt=""刺激圖片"">
          <p style=""margin-top:14px;"">
            您上次選擇的是 <strong>日本</strong>，
            機器人認為這裡是 <strong>阿根廷</strong>，<br>
            請再次猜測您認為這張照片最可能拍攝的地點
          </p>
        </div>
    <div class=""progress-wrap"">
      <div class=""progress-label"">第 1 段&emsp;1 / 10</div>
      <div class=""progress-track"">
        <div class=""progress-fill"" style=""width:10%""></div>
      </div>
    </div>","0","page4","","","","","","","","","","","","","","","","","","","","","","","","","","","","","","","","","","","","","","","","","","","","","","","","","","","","","","","","","","","","","","","","","","","","","","","","","","","","","","","","","","","",""
"html-button-response","17","289171","0.0-17.0","P1779430357950_IX08FB","1691","
        <div style=""text-align:center;padding-bottom:60px;"">
          <img src=""final_stimfile/argentina_01_antigua_estacion_trelew_3.jpg"" class=""stim-trial"" alt=""刺激圖片"">
          <p style=""margin-top:14px;"">您剛才選擇的答案是 <strong>阿根廷</strong>，請問您對此選項的信心如何？</p>
          <p style=""color:#888;font-size:13px;"">（1 分 = 非常沒信心；5 分 = 非常有信心）</p>
        </div>
    <div class=""progress-wrap"">
      <div class=""progress-label"">第 1 段&emsp;1 / 10</div>
      <div class=""progress-track"">
        <div class=""progress-fill"" style=""width:10%""></div>
      </div>
    </div>","1","trial","","","","","level4","1","0","1","1","1","argentina_01_antigua_estacion_trelew_3","阿根廷","日本","false","2","阿根廷","true","2","76594","61610","14629","1691","","","","","","","","","","","","","","","","","","","","","","","","","","","","","","","","","","","","","","","","","","","","","","","","","","","","","","","","","","","","","",""
"html-button-response","18","297734","0.0-18.0","P1779430357950_IX08FB","8562","
      <div style=""text-align:center;padding-bottom:60px;"">
        <img src=""final_stimfile/moroque_hassan_mosque.jpg"" class=""stim-trial"" alt=""刺激圖片"">
        <p style=""margin-top:14px;"">請猜測您認為這張照片最可能拍攝的地點</p>
      </div>
    <div class=""progress-wrap"">
      <div class=""progress-label"">第 1 段&emsp;2 / 10</div>
      <div class=""progress-track"">
        <div class=""progress-fill"" style=""width:20%""></div>
      </div>
    </div>","2","page1","","","","","","","","","","","","","","","","","","","","","","","","","","","","","","","","","","","","","","","","","","","","","","","","","","","","","","","","","","","","","","","","","","","","","","","","","","","","","","","","","","","",""
"html-button-response","19","300213","0.0-19.0","P1779430357950_IX08FB","2478","
        <div style=""text-align:center;padding-bottom:60px;"">
          <img src=""final_stimfile/moroque_hassan_mosque.jpg"" class=""stim-trial"" alt=""刺激圖片"">
          <p style=""margin-top:14px;"">您剛才選擇的答案是 <strong>西班牙</strong>，請問您對此選項的信心如何？</p>
          <p style=""color:#888;font-size:13px;"">（1 分 = 非常沒信心；5 分 = 非常有信心）</p>
        </div>
    <div class=""progress-wrap"">
      <div class=""progress-label"">第 1 段&emsp;2 / 10</div>
      <div class=""progress-track"">
        <div class=""progress-fill"" style=""width:20%""></div>
      </div>
    </div>","2","page2","","","","","","","","","","","","","","","","","","","","","","","","","","","","","","","","","","","","","","","","","","","","","","","","","","","","","","","","","","","","","","","","","","","","","","","","","","","","","","","","","","","",""
"html-button-response","20","313844","0.0-20.0","P1779430357950_IX08FB","13630","
      <div style=""display:flex;height:calc(100vh - 130px);min-height:400px;"">

        <!-- ── Left 50 %: stimulus image ── -->
        <div style=""flex:0 0 50%;display:flex;align-items:center;justify-content:center;padding:28px 16px 28px 28px;"">
          <img src=""final_stimfile/moroque_hassan_mosque.jpg""
               style=""max-width:100%;max-height:100%;object-fit:contain;border-radius:6px;""
               alt=""刺激圖片"">
        </div>

        <!-- ── Right 50 %: top (avatar) + bottom (chat) ── -->
        <div style=""flex:1;display:flex;flex-direction:column;padding:16px 28px 16px 16px;min-width:0;"">

          <!-- Top 40 %: robot avatar, centred -->
          <div style=""flex:0 0 40%;display:flex;flex-direction:column;align-items:center;justify-content:center;gap:10px;"">
            <img src=""stimulus/level4.png""
                 style=""width:120px;height:120px;object-fit:contain;border-radius:50%;""
                 alt="""">
            <span style=""font-size:14px;color:#555;"">機器人 A</span>
          </div>

          <!-- Bottom 60 %: chat messages -->
          <div style=""flex:1;overflow-y:auto;padding-top:6px;"">
            <div class=""chat-messages"" id=""chat-msg-area""></div>
          </div>

        </div>
      </div>
    <div class=""progress-wrap"">
      <div class=""progress-label"">第 1 段&emsp;2 / 10</div>
      <div class=""progress-track"">
        <div class=""progress-fill"" style=""width:20%""></div>
      </div>
    </div>","0","page3","","","","","","","","","","","","","","","","","","","","","","","","","","","","","","","","","","","","","","","","","","","","","","","","","","","","","","","","","","","","","","","","","","","","","","","","","","","","","","","","","","","",""
"html-button-response","21","315955","0.0-21.0","P1779430357950_IX08FB","2110","
        <div style=""text-align:center;padding-bottom:60px;"">
          <img src=""final_stimfile/moroque_hassan_mosque.jpg"" class=""stim-trial"" alt=""刺激圖片"">
          <p style=""margin-top:14px;"">
            您上次選擇的是 <strong>西班牙</strong>，
            機器人認為這裡是 <strong>摩洛哥</strong>，<br>
            請再次猜測您認為這張照片最可能拍攝的地點
          </p>
        </div>
    <div class=""progress-wrap"">
      <div class=""progress-label"">第 1 段&emsp;2 / 10</div>
      <div class=""progress-track"">
        <div class=""progress-fill"" style=""width:20%""></div>
      </div>
    </div>","0","page4","","","","","","","","","","","","","","","","","","","","","","","","","","","","","","","","","","","","","","","","","","","","","","","","","","","","","","","","","","","","","","","","","","","","","","","","","","","","","","","","","","","",""
"html-button-response","22","317675","0.0-22.0","P1779430357950_IX08FB","1719","
        <div style=""text-align:center;padding-bottom:60px;"">
          <img src=""final_stimfile/moroque_hassan_mosque.jpg"" class=""stim-trial"" alt=""刺激圖片"">
          <p style=""margin-top:14px;"">您剛才選擇的答案是 <strong>摩洛哥</strong>，請問您對此選項的信心如何？</p>
          <p style=""color:#888;font-size:13px;"">（1 分 = 非常沒信心；5 分 = 非常有信心）</p>
        </div>
    <div class=""progress-wrap"">
      <div class=""progress-label"">第 1 段&emsp;2 / 10</div>
      <div class=""progress-track"">
        <div class=""progress-fill"" style=""width:20%""></div>
      </div>
    </div>","1","trial","","","","","level4","1","0","1","2","2","moroque_hassan_mosque","摩洛哥","西班牙","false","3","摩洛哥","true","2","8562","2110","13630","1719","","","","","","","","","","","","","","","","","","","","","","","","","","","","","","","","","","","","","","","","","","","","","","","","","","","","","","","","","","","","","",""
"html-button-response","23","329037","0.0-23.0","P1779430357950_IX08FB","11360","
      <div style=""text-align:center;padding-bottom:60px;"">
        <img src=""final_stimfile/mali_great_mosque_of_djenne.jpg"" class=""stim-trial"" alt=""刺激圖片"">
        <p style=""margin-top:14px;"">請猜測您認為這張照片最可能拍攝的地點</p>
      </div>
    <div class=""progress-wrap"">
      <div class=""progress-label"">第 1 段&emsp;3 / 10</div>
      <div class=""progress-track"">
        <div class=""progress-fill"" style=""width:30%""></div>
      </div>
    </div>","1","page1","","","","","","","","","","","","","","","","","","","","","","","","","","","","","","","","","","","","","","","","","","","","","","","","","","","","","","","","","","","","","","","","","","","","","","","","","","","","","","","","","","","",""
"html-button-response","24","331007","0.0-24.0","P1779430357950_IX08FB","1969","
        <div style=""text-align:center;padding-bottom:60px;"">
          <img src=""final_stimfile/mali_great_mosque_of_djenne.jpg"" class=""stim-trial"" alt=""刺激圖片"">
          <p style=""margin-top:14px;"">您剛才選擇的答案是 <strong>伊朗</strong>，請問您對此選項的信心如何？</p>
          <p style=""color:#888;font-size:13px;"">（1 分 = 非常沒信心；5 分 = 非常有信心）</p>
        </div>
    <div class=""progress-wrap"">
      <div class=""progress-label"">第 1 段&emsp;3 / 10</div>
      <div class=""progress-track"">
        <div class=""progress-fill"" style=""width:30%""></div>
      </div>
    </div>","1","page2","","","","","","","","","","","","","","","","","","","","","","","","","","","","","","","","","","","","","","","","","","","","","","","","","","","","","","","","","","","","","","","","","","","","","","","","","","","","","","","","","","","",""
"html-button-response","25","355335","0.0-25.0","P1779430357950_IX08FB","24326","
      <div style=""display:flex;height:calc(100vh - 130px);min-height:400px;"">

        <!-- ── Left 50 %: stimulus image ── -->
        <div style=""flex:0 0 50%;display:flex;align-items:center;justify-content:center;padding:28px 16px 28px 28px;"">
          <img src=""final_stimfile/mali_great_mosque_of_djenne.jpg""
               style=""max-width:100%;max-height:100%;object-fit:contain;border-radius:6px;""
               alt=""刺激圖片"">
        </div>

        <!-- ── Right 50 %: top (avatar) + bottom (chat) ── -->
        <div style=""flex:1;display:flex;flex-direction:column;padding:16px 28px 16px 16px;min-width:0;"">

          <!-- Top 40 %: robot avatar, centred -->
          <div style=""flex:0 0 40%;display:flex;flex-direction:column;align-items:center;justify-content:center;gap:10px;"">
            <img src=""stimulus/level4.png""
                 style=""width:120px;height:120px;object-fit:contain;border-radius:50%;""
                 alt="""">
            <span style=""font-size:14px;color:#555;"">機器人 A</span>
          </div>

          <!-- Bottom 60 %: chat messages -->
          <div style=""flex:1;overflow-y:auto;padding-top:6px;"">
            <div class=""chat-messages"" id=""chat-msg-area""></div>
          </div>

        </div>
      </div>
    <div class=""progress-wrap"">
      <div class=""progress-label"">第 1 段&emsp;3 / 10</div>
      <div class=""progress-track"">
        <div class=""progress-fill"" style=""width:30%""></div>
      </div>
    </div>","0","page3","","","","","","","","","","","","","","","","","","","","","","","","","","","","","","","","","","","","","","","","","","","","","","","","","","","","","","","","","","","","","","","","","","","","","","","","","","","","","","","","","","","",""
"html-button-response","26","357881","0.0-26.0","P1779430357950_IX08FB","2544","
        <div style=""text-align:center;padding-bottom:60px;"">
          <img src=""final_stimfile/mali_great_mosque_of_djenne.jpg"" class=""stim-trial"" alt=""刺激圖片"">
          <p style=""margin-top:14px;"">
            您上次選擇的是 <strong>伊朗</strong>，
            機器人認為這裡是 <strong>馬利</strong>，<br>
            請再次猜測您認為這張照片最可能拍攝的地點
          </p>
        </div>
    <div class=""progress-wrap"">
      <div class=""progress-label"">第 1 段&emsp;3 / 10</div>
      <div class=""progress-track"">
        <div class=""progress-fill"" style=""width:30%""></div>
      </div>
    </div>","0","page4","","","","","","","","","","","","","","","","","","","","","","","","","","","","","","","","","","","","","","","","","","","","","","","","","","","","","","","","","","","","","","","","","","","","","","","","","","","","","","","","","","","",""
"html-button-response","27","359266","0.0-27.0","P1779430357950_IX08FB","1384","
        <div style=""text-align:center;padding-bottom:60px;"">
          <img src=""final_stimfile/mali_great_mosque_of_djenne.jpg"" class=""stim-trial"" alt=""刺激圖片"">
          <p style=""margin-top:14px;"">您剛才選擇的答案是 <strong>馬利</strong>，請問您對此選項的信心如何？</p>
          <p style=""color:#888;font-size:13px;"">（1 分 = 非常沒信心；5 分 = 非常有信心）</p>
        </div>
    <div class=""progress-wrap"">
      <div class=""progress-label"">第 1 段&emsp;3 / 10</div>
      <div class=""progress-track"">
        <div class=""progress-fill"" style=""width:30%""></div>
      </div>
    </div>","1","trial","","","","","level4","1","0","1","3","3","mali_great_mosque_of_djenne","馬利","伊朗","false","2","馬利","true","2","11360","2544","24326","1384","","","","","","","","","","","","","","","","","","","","","","","","","","","","","","","","","","","","","","","","","","","","","","","","","","","","","","","","","","","","","",""
"html-button-response","28","373556","0.0-28.0","P1779430357950_IX08FB","14289","
      <div style=""text-align:center;padding-bottom:60px;"">
        <img src=""final_stimfile/turkey_blue_mosque.jpg"" class=""stim-trial"" alt=""刺激圖片"">
        <p style=""margin-top:14px;"">請猜測您認為這張照片最可能拍攝的地點</p>
      </div>
    <div class=""progress-wrap"">
      <div class=""progress-label"">第 1 段&emsp;4 / 10</div>
      <div class=""progress-track"">
        <div class=""progress-fill"" style=""width:40%""></div>
      </div>
    </div>","0","page1","","","","","","","","","","","","","","","","","","","","","","","","","","","","","","","","","","","","","","","","","","","","","","","","","","","","","","","","","","","","","","","","","","","","","","","","","","","","","","","","","","","",""
"html-button-response","29","375060","0.0-29.0","P1779430357950_IX08FB","1502","
        <div style=""text-align:center;padding-bottom:60px;"">
          <img src=""final_stimfile/turkey_blue_mosque.jpg"" class=""stim-trial"" alt=""刺激圖片"">
          <p style=""margin-top:14px;"">您剛才選擇的答案是 <strong>土耳其</strong>，請問您對此選項的信心如何？</p>
          <p style=""color:#888;font-size:13px;"">（1 分 = 非常沒信心；5 分 = 非常有信心）</p>
        </div>
    <div class=""progress-wrap"">
      <div class=""progress-label"">第 1 段&emsp;4 / 10</div>
      <div class=""progress-track"">
        <div class=""progress-fill"" style=""width:40%""></div>
      </div>
    </div>","2","page2","","","","","","","","","","","","","","","","","","","","","","","","","","","","","","","","","","","","","","","","","","","","","","","","","","","","","","","","","","","","","","","","","","","","","","","","","","","","","","","","","","","",""
"html-button-response","30","386906","0.0-30.0","P1779430357950_IX08FB","11844","
      <div style=""display:flex;height:calc(100vh - 130px);min-height:400px;"">

        <!-- ── Left 50 %: stimulus image ── -->
        <div style=""flex:0 0 50%;display:flex;align-items:center;justify-content:center;padding:28px 16px 28px 28px;"">
          <img src=""final_stimfile/turkey_blue_mosque.jpg""
               style=""max-width:100%;max-height:100%;object-fit:contain;border-radius:6px;""
               alt=""刺激圖片"">
        </div>

        <!-- ── Right 50 %: top (avatar) + bottom (chat) ── -->
        <div style=""flex:1;display:flex;flex-direction:column;padding:16px 28px 16px 16px;min-width:0;"">

          <!-- Top 40 %: robot avatar, centred -->
          <div style=""flex:0 0 40%;display:flex;flex-direction:column;align-items:center;justify-content:center;gap:10px;"">
            <img src=""stimulus/level4.png""
                 style=""width:120px;height:120px;object-fit:contain;border-radius:50%;""
                 alt="""">
            <span style=""font-size:14px;color:#555;"">機器人 A</span>
          </div>

          <!-- Bottom 60 %: chat messages -->
          <div style=""flex:1;overflow-y:auto;padding-top:6px;"">
            <div class=""chat-messages"" id=""chat-msg-area""></div>
          </div>

        </div>
      </div>
    <div class=""progress-wrap"">
      <div class=""progress-label"">第 1 段&emsp;4 / 10</div>
      <div class=""progress-track"">
        <div class=""progress-fill"" style=""width:40%""></div>
      </div>
    </div>","0","page3","","","","","","","","","","","","","","","","","","","","","","","","","","","","","","","","","","","","","","","","","","","","","","","","","","","","","","","","","","","","","","","","","","","","","","","","","","","","","","","","","","","",""
"html-button-response","31","389146","0.0-31.0","P1779430357950_IX08FB","2239","
        <div style=""text-align:center;padding-bottom:60px;"">
          <img src=""final_stimfile/turkey_blue_mosque.jpg"" class=""stim-trial"" alt=""刺激圖片"">
          <p style=""margin-top:14px;"">
            您上次選擇的是 <strong>土耳其</strong>，
            機器人認為這裡是 <strong>土耳其</strong>，<br>
            請再次猜測您認為這張照片最可能拍攝的地點
          </p>
        </div>
    <div class=""progress-wrap"">
      <div class=""progress-label"">第 1 段&emsp;4 / 10</div>
      <div class=""progress-track"">
        <div class=""progress-fill"" style=""width:40%""></div>
      </div>
    </div>","0","page4","","","","","","","","","","","","","","","","","","","","","","","","","","","","","","","","","","","","","","","","","","","","","","","","","","","","","","","","","","","","","","","","","","","","","","","","","","","","","","","","","","","",""
"html-button-response","32","391950","0.0-32.0","P1779430357950_IX08FB","2802","
        <div style=""text-align:center;padding-bottom:60px;"">
          <img src=""final_stimfile/turkey_blue_mosque.jpg"" class=""stim-trial"" alt=""刺激圖片"">
          <p style=""margin-top:14px;"">您剛才選擇的答案是 <strong>土耳其</strong>，請問您對此選項的信心如何？</p>
          <p style=""color:#888;font-size:13px;"">（1 分 = 非常沒信心；5 分 = 非常有信心）</p>
        </div>
    <div class=""progress-wrap"">
      <div class=""progress-label"">第 1 段&emsp;4 / 10</div>
      <div class=""progress-track"">
        <div class=""progress-fill"" style=""width:40%""></div>
      </div>
    </div>","2","trial","","","","","level4","1","0","1","4","4","turkey_blue_mosque","土耳其","土耳其","true","3","土耳其","true","3","14289","2239","11844","2802","","","","","","","","","","","","","","","","","","","","","","","","","","","","","","","","","","","","","","","","","","","","","","","","","","","","","","","","","","","","","",""
"html-button-response","33","404541","0.0-33.0","P1779430357950_IX08FB","12589","
      <div style=""text-align:center;padding-bottom:60px;"">
        <img src=""final_stimfile/indonesia_03_pesisir_pantai_baron_-_panoramio.jpg"" class=""stim-trial"" alt=""刺激圖片"">
        <p style=""margin-top:14px;"">請猜測您認為這張照片最可能拍攝的地點</p>
      </div>
    <div class=""progress-wrap"">
      <div class=""progress-label"">第 1 段&emsp;5 / 10</div>
      <div class=""progress-track"">
        <div class=""progress-fill"" style=""width:50%""></div>
      </div>
    </div>","0","page1","","","","","","","","","","","","","","","","","","","","","","","","","","","","","","","","","","","","","","","","","","","","","","","","","","","","","","","","","","","","","","","","","","","","","","","","","","","","","","","","","","","",""
"html-button-response","34","409352","0.0-34.0","P1779430357950_IX08FB","4810","
        <div style=""text-align:center;padding-bottom:60px;"">
          <img src=""final_stimfile/indonesia_03_pesisir_pantai_baron_-_panoramio.jpg"" class=""stim-trial"" alt=""刺激圖片"">
          <p style=""margin-top:14px;"">您剛才選擇的答案是 <strong>印尼</strong>，請問您對此選項的信心如何？</p>
          <p style=""color:#888;font-size:13px;"">（1 分 = 非常沒信心；5 分 = 非常有信心）</p>
        </div>
    <div class=""progress-wrap"">
      <div class=""progress-label"">第 1 段&emsp;5 / 10</div>
      <div class=""progress-track"">
        <div class=""progress-fill"" style=""width:50%""></div>
      </div>
    </div>","3","page2","","","","","","","","","","","","","","","","","","","","","","","","","","","","","","","","","","","","","","","","","","","","","","","","","","","","","","","","","","","","","","","","","","","","","","","","","","","","","","","","","","","",""
"html-button-response","35","420501","0.0-35.0","P1779430357950_IX08FB","11146","
      <div style=""display:flex;height:calc(100vh - 130px);min-height:400px;"">

        <!-- ── Left 50 %: stimulus image ── -->
        <div style=""flex:0 0 50%;display:flex;align-items:center;justify-content:center;padding:28px 16px 28px 28px;"">
          <img src=""final_stimfile/indonesia_03_pesisir_pantai_baron_-_panoramio.jpg""
               style=""max-width:100%;max-height:100%;object-fit:contain;border-radius:6px;""
               alt=""刺激圖片"">
        </div>

        <!-- ── Right 50 %: top (avatar) + bottom (chat) ── -->
        <div style=""flex:1;display:flex;flex-direction:column;padding:16px 28px 16px 16px;min-width:0;"">

          <!-- Top 40 %: robot avatar, centred -->
          <div style=""flex:0 0 40%;display:flex;flex-direction:column;align-items:center;justify-content:center;gap:10px;"">
            <img src=""stimulus/level4.png""
                 style=""width:120px;height:120px;object-fit:contain;border-radius:50%;""
                 alt="""">
            <span style=""font-size:14px;color:#555;"">機器人 A</span>
          </div>

          <!-- Bottom 60 %: chat messages -->
          <div style=""flex:1;overflow-y:auto;padding-top:6px;"">
            <div class=""chat-messages"" id=""chat-msg-area""></div>
          </div>

        </div>
      </div>
    <div class=""progress-wrap"">
      <div class=""progress-label"">第 1 段&emsp;5 / 10</div>
      <div class=""progress-track"">
        <div class=""progress-fill"" style=""width:50%""></div>
      </div>
    </div>","0","page3","","","","","","","","","","","","","","","","","","","","","","","","","","","","","","","","","","","","","","","","","","","","","","","","","","","","","","","","","","","","","","","","","","","","","","","","","","","","","","","","","","","",""
"html-button-response","36","422468","0.0-36.0","P1779430357950_IX08FB","1965","
        <div style=""text-align:center;padding-bottom:60px;"">
          <img src=""final_stimfile/indonesia_03_pesisir_pantai_baron_-_panoramio.jpg"" class=""stim-trial"" alt=""刺激圖片"">
          <p style=""margin-top:14px;"">
            您上次選擇的是 <strong>印尼</strong>，
            機器人認為這裡是 <strong>印尼</strong>，<br>
            請再次猜測您認為這張照片最可能拍攝的地點
          </p>
        </div>
    <div class=""progress-wrap"">
      <div class=""progress-label"">第 1 段&emsp;5 / 10</div>
      <div class=""progress-track"">
        <div class=""progress-fill"" style=""width:50%""></div>
      </div>
    </div>","0","page4","","","","","","","","","","","","","","","","","","","","","","","","","","","","","","","","","","","","","","","","","","","","","","","","","","","","","","","","","","","","","","","","","","","","","","","","","","","","","","","","","","","",""
"html-button-response","37","423791","0.0-37.0","P1779430357950_IX08FB","1322","
        <div style=""text-align:center;padding-bottom:60px;"">
          <img src=""final_stimfile/indonesia_03_pesisir_pantai_baron_-_panoramio.jpg"" class=""stim-trial"" alt=""刺激圖片"">
          <p style=""margin-top:14px;"">您剛才選擇的答案是 <strong>印尼</strong>，請問您對此選項的信心如何？</p>
          <p style=""color:#888;font-size:13px;"">（1 分 = 非常沒信心；5 分 = 非常有信心）</p>
        </div>
    <div class=""progress-wrap"">
      <div class=""progress-label"">第 1 段&emsp;5 / 10</div>
      <div class=""progress-track"">
        <div class=""progress-fill"" style=""width:50%""></div>
      </div>
    </div>","3","trial","","","","","level4","1","0","1","5","5","indonesia_03_pesisir_pantai_baron_-_panoramio","印尼","印尼","true","4","印尼","true","4","12589","1965","11146","1322","","","","","","","","","","","","","","","","","","","","","","","","","","","","","","","","","","","","","","","","","","","","","","","","","","","","","","","","","","","","","",""
"html-button-response","38","435011","0.0-38.0","P1779430357950_IX08FB","11218","
      <div style=""text-align:center;padding-bottom:60px;"">
        <img src=""final_stimfile/green_island_01_costa_cerca_de_grindavik_su_urland_islandia_2014-08-13_dd_080.jpg"" class=""stim-trial"" alt=""刺激圖片"">
        <p style=""margin-top:14px;"">請猜測您認為這張照片最可能拍攝的地點</p>
      </div>
    <div class=""progress-wrap"">
      <div class=""progress-label"">第 1 段&emsp;6 / 10</div>
      <div class=""progress-track"">
        <div class=""progress-fill"" style=""width:60%""></div>
      </div>
    </div>","0","page1","","","","","","","","","","","","","","","","","","","","","","","","","","","","","","","","","","","","","","","","","","","","","","","","","","","","","","","","","","","","","","","","","","","","","","","","","","","","","","","","","","","",""
"html-button-response","39","437423","0.0-39.0","P1779430357950_IX08FB","2409","
        <div style=""text-align:center;padding-bottom:60px;"">
          <img src=""final_stimfile/green_island_01_costa_cerca_de_grindavik_su_urland_islandia_2014-08-13_dd_080.jpg"" class=""stim-trial"" alt=""刺激圖片"">
          <p style=""margin-top:14px;"">您剛才選擇的答案是 <strong>冰島</strong>，請問您對此選項的信心如何？</p>
          <p style=""color:#888;font-size:13px;"">（1 分 = 非常沒信心；5 分 = 非常有信心）</p>
        </div>
    <div class=""progress-wrap"">
      <div class=""progress-label"">第 1 段&emsp;6 / 10</div>
      <div class=""progress-track"">
        <div class=""progress-fill"" style=""width:60%""></div>
      </div>
    </div>","1","page2","","","","","","","","","","","","","","","","","","","","","","","","","","","","","","","","","","","","","","","","","","","","","","","","","","","","","","","","","","","","","","","","","","","","","","","","","","","","","","","","","","","",""
"html-button-response","40","452794","0.0-40.0","P1779430357950_IX08FB","15370","
      <div style=""display:flex;height:calc(100vh - 130px);min-height:400px;"">

        <!-- ── Left 50 %: stimulus image ── -->
        <div style=""flex:0 0 50%;display:flex;align-items:center;justify-content:center;padding:28px 16px 28px 28px;"">
          <img src=""final_stimfile/green_island_01_costa_cerca_de_grindavik_su_urland_islandia_2014-08-13_dd_080.jpg""
               style=""max-width:100%;max-height:100%;object-fit:contain;border-radius:6px;""
               alt=""刺激圖片"">
        </div>

        <!-- ── Right 50 %: top (avatar) + bottom (chat) ── -->
        <div style=""flex:1;display:flex;flex-direction:column;padding:16px 28px 16px 16px;min-width:0;"">

          <!-- Top 40 %: robot avatar, centred -->
          <div style=""flex:0 0 40%;display:flex;flex-direction:column;align-items:center;justify-content:center;gap:10px;"">
            <img src=""stimulus/level4.png""
                 style=""width:120px;height:120px;object-fit:contain;border-radius:50%;""
                 alt="""">
            <span style=""font-size:14px;color:#555;"">機器人 A</span>
          </div>

          <!-- Bottom 60 %: chat messages -->
          <div style=""flex:1;overflow-y:auto;padding-top:6px;"">
            <div class=""chat-messages"" id=""chat-msg-area""></div>
          </div>

        </div>
      </div>
    <div class=""progress-wrap"">
      <div class=""progress-label"">第 1 段&emsp;6 / 10</div>
      <div class=""progress-track"">
        <div class=""progress-fill"" style=""width:60%""></div>
      </div>
    </div>","0","page3","","","","","","","","","","","","","","","","","","","","","","","","","","","","","","","","","","","","","","","","","","","","","","","","","","","","","","","","","","","","","","","","","","","","","","","","","","","","","","","","","","","",""
"html-button-response","41","454229","0.0-41.0","P1779430357950_IX08FB","1433","
        <div style=""text-align:center;padding-bottom:60px;"">
          <img src=""final_stimfile/green_island_01_costa_cerca_de_grindavik_su_urland_islandia_2014-08-13_dd_080.jpg"" class=""stim-trial"" alt=""刺激圖片"">
          <p style=""margin-top:14px;"">
            您上次選擇的是 <strong>冰島</strong>，
            機器人認為這裡是 <strong>冰島</strong>，<br>
            請再次猜測您認為這張照片最可能拍攝的地點
          </p>
        </div>
    <div class=""progress-wrap"">
      <div class=""progress-label"">第 1 段&emsp;6 / 10</div>
      <div class=""progress-track"">
        <div class=""progress-fill"" style=""width:60%""></div>
      </div>
    </div>","0","page4","","","","","","","","","","","","","","","","","","","","","","","","","","","","","","","","","","","","","","","","","","","","","","","","","","","","","","","","","","","","","","","","","","","","","","","","","","","","","","","","","","","",""
"html-button-response","42","457117","0.0-42.0","P1779430357950_IX08FB","2887","
        <div style=""text-align:center;padding-bottom:60px;"">
          <img src=""final_stimfile/green_island_01_costa_cerca_de_grindavik_su_urland_islandia_2014-08-13_dd_080.jpg"" class=""stim-trial"" alt=""刺激圖片"">
          <p style=""margin-top:14px;"">您剛才選擇的答案是 <strong>冰島</strong>，請問您對此選項的信心如何？</p>
          <p style=""color:#888;font-size:13px;"">（1 分 = 非常沒信心；5 分 = 非常有信心）</p>
        </div>
    <div class=""progress-wrap"">
      <div class=""progress-label"">第 1 段&emsp;6 / 10</div>
      <div class=""progress-track"">
        <div class=""progress-fill"" style=""width:60%""></div>
      </div>
    </div>","2","trial","","","","","level4","1","0","1","6","6","green_island_01_costa_cerca_de_grindavik_su_urland_islandia_2014-08-13_dd_080","冰島","冰島","true","2","冰島","true","3","11218","1433","15370","2887","","","","","","","","","","","","","","","","","","","","","","","","","","","","","","","","","","","","","","","","","","","","","","","","","","","","","","","","","","","","","",""
"html-button-response","43","470928","0.0-43.0","P1779430357950_IX08FB","13810","
      <div style=""text-align:center;padding-bottom:60px;"">
        <img src=""final_stimfile/spain_02_2017_08_41_adarra_aballarri.jpg"" class=""stim-trial"" alt=""刺激圖片"">
        <p style=""margin-top:14px;"">請猜測您認為這張照片最可能拍攝的地點</p>
      </div>
    <div class=""progress-wrap"">
      <div class=""progress-label"">第 1 段&emsp;7 / 10</div>
      <div class=""progress-track"">
        <div class=""progress-fill"" style=""width:70%""></div>
      </div>
    </div>","3","page1","","","","","","","","","","","","","","","","","","","","","","","","","","","","","","","","","","","","","","","","","","","","","","","","","","","","","","","","","","","","","","","","","","","","","","","","","","","","","","","","","","","",""
"html-button-response","44","475416","0.0-44.0","P1779430357950_IX08FB","4486","
        <div style=""text-align:center;padding-bottom:60px;"">
          <img src=""final_stimfile/spain_02_2017_08_41_adarra_aballarri.jpg"" class=""stim-trial"" alt=""刺激圖片"">
          <p style=""margin-top:14px;"">您剛才選擇的答案是 <strong>紐西蘭</strong>，請問您對此選項的信心如何？</p>
          <p style=""color:#888;font-size:13px;"">（1 分 = 非常沒信心；5 分 = 非常有信心）</p>
        </div>
    <div class=""progress-wrap"">
      <div class=""progress-label"">第 1 段&emsp;7 / 10</div>
      <div class=""progress-track"">
        <div class=""progress-fill"" style=""width:70%""></div>
      </div>
    </div>","0","page2","","","","","","","","","","","","","","","","","","","","","","","","","","","","","","","","","","","","","","","","","","","","","","","","","","","","","","","","","","","","","","","","","","","","","","","","","","","","","","","","","","","",""
"html-button-response","45","488941","0.0-45.0","P1779430357950_IX08FB","13524","
      <div style=""display:flex;height:calc(100vh - 130px);min-height:400px;"">

        <!-- ── Left 50 %: stimulus image ── -->
        <div style=""flex:0 0 50%;display:flex;align-items:center;justify-content:center;padding:28px 16px 28px 28px;"">
          <img src=""final_stimfile/spain_02_2017_08_41_adarra_aballarri.jpg""
               style=""max-width:100%;max-height:100%;object-fit:contain;border-radius:6px;""
               alt=""刺激圖片"">
        </div>

        <!-- ── Right 50 %: top (avatar) + bottom (chat) ── -->
        <div style=""flex:1;display:flex;flex-direction:column;padding:16px 28px 16px 16px;min-width:0;"">

          <!-- Top 40 %: robot avatar, centred -->
          <div style=""flex:0 0 40%;display:flex;flex-direction:column;align-items:center;justify-content:center;gap:10px;"">
            <img src=""stimulus/level4.png""
                 style=""width:120px;height:120px;object-fit:contain;border-radius:50%;""
                 alt="""">
            <span style=""font-size:14px;color:#555;"">機器人 A</span>
          </div>

          <!-- Bottom 60 %: chat messages -->
          <div style=""flex:1;overflow-y:auto;padding-top:6px;"">
            <div class=""chat-messages"" id=""chat-msg-area""></div>
          </div>

        </div>
      </div>
    <div class=""progress-wrap"">
      <div class=""progress-label"">第 1 段&emsp;7 / 10</div>
      <div class=""progress-track"">
        <div class=""progress-fill"" style=""width:70%""></div>
      </div>
    </div>","0","page3","","","","","","","","","","","","","","","","","","","","","","","","","","","","","","","","","","","","","","","","","","","","","","","","","","","","","","","","","","","","","","","","","","","","","","","","","","","","","","","","","","","",""
"html-button-response","46","529336","0.0-46.0","P1779430357950_IX08FB","40392","
        <div style=""text-align:center;padding-bottom:60px;"">
          <img src=""final_stimfile/spain_02_2017_08_41_adarra_aballarri.jpg"" class=""stim-trial"" alt=""刺激圖片"">
          <p style=""margin-top:14px;"">
            您上次選擇的是 <strong>紐西蘭</strong>，
            機器人認為這裡是 <strong>西班牙</strong>，<br>
            請再次猜測您認為這張照片最可能拍攝的地點
          </p>
        </div>
    <div class=""progress-wrap"">
      <div class=""progress-label"">第 1 段&emsp;7 / 10</div>
      <div class=""progress-track"">
        <div class=""progress-fill"" style=""width:70%""></div>
      </div>
    </div>","3","page4","","","","","","","","","","","","","","","","","","","","","","","","","","","","","","","","","","","","","","","","","","","","","","","","","","","","","","","","","","","","","","","","","","","","","","","","","","","","","","","","","","","",""
"html-button-response","47","531229","0.0-47.0","P1779430357950_IX08FB","1892","
        <div style=""text-align:center;padding-bottom:60px;"">
          <img src=""final_stimfile/spain_02_2017_08_41_adarra_aballarri.jpg"" class=""stim-trial"" alt=""刺激圖片"">
          <p style=""margin-top:14px;"">您剛才選擇的答案是 <strong>紐西蘭</strong>，請問您對此選項的信心如何？</p>
          <p style=""color:#888;font-size:13px;"">（1 分 = 非常沒信心；5 分 = 非常有信心）</p>
        </div>
    <div class=""progress-wrap"">
      <div class=""progress-label"">第 1 段&emsp;7 / 10</div>
      <div class=""progress-track"">
        <div class=""progress-fill"" style=""width:70%""></div>
      </div>
    </div>","0","trial","","","","","level4","1","0","1","7","7","spain_02_2017_08_41_adarra_aballarri","西班牙","紐西蘭","false","1","紐西蘭","false","1","13810","40392","13524","1892","","","","","","","","","","","","","","","","","","","","","","","","","","","","","","","","","","","","","","","","","","","","","","","","","","","","","","","","","","","","","",""
"html-button-response","48","560163","0.0-48.0","P1779430357950_IX08FB","28933","
      <div style=""text-align:center;padding-bottom:60px;"">
        <img src=""final_stimfile/spain_plaza_de_espana.jpg"" class=""stim-trial"" alt=""刺激圖片"">
        <p style=""margin-top:14px;"">請猜測您認為這張照片最可能拍攝的地點</p>
      </div>
    <div class=""progress-wrap"">
      <div class=""progress-label"">第 1 段&emsp;8 / 10</div>
      <div class=""progress-track"">
        <div class=""progress-fill"" style=""width:80%""></div>
      </div>
    </div>","0","page1","","","","","","","","","","","","","","","","","","","","","","","","","","","","","","","","","","","","","","","","","","","","","","","","","","","","","","","","","","","","","","","","","","","","","","","","","","","","","","","","","","","",""
"html-button-response","49","565152","0.0-49.0","P1779430357950_IX08FB","4988","
        <div style=""text-align:center;padding-bottom:60px;"">
          <img src=""final_stimfile/spain_plaza_de_espana.jpg"" class=""stim-trial"" alt=""刺激圖片"">
          <p style=""margin-top:14px;"">您剛才選擇的答案是 <strong>西班牙</strong>，請問您對此選項的信心如何？</p>
          <p style=""color:#888;font-size:13px;"">（1 分 = 非常沒信心；5 分 = 非常有信心）</p>
        </div>
    <div class=""progress-wrap"">
      <div class=""progress-label"">第 1 段&emsp;8 / 10</div>
      <div class=""progress-track"">
        <div class=""progress-fill"" style=""width:80%""></div>
      </div>
    </div>","3","page2","","","","","","","","","","","","","","","","","","","","","","","","","","","","","","","","","","","","","","","","","","","","","","","","","","","","","","","","","","","","","","","","","","","","","","","","","","","","","","","","","","","",""
"html-button-response","50","580598","0.0-50.0","P1779430357950_IX08FB","15445","
      <div style=""display:flex;height:calc(100vh - 130px);min-height:400px;"">

        <!-- ── Left 50 %: stimulus image ── -->
        <div style=""flex:0 0 50%;display:flex;align-items:center;justify-content:center;padding:28px 16px 28px 28px;"">
          <img src=""final_stimfile/spain_plaza_de_espana.jpg""
               style=""max-width:100%;max-height:100%;object-fit:contain;border-radius:6px;""
               alt=""刺激圖片"">
        </div>

        <!-- ── Right 50 %: top (avatar) + bottom (chat) ── -->
        <div style=""flex:1;display:flex;flex-direction:column;padding:16px 28px 16px 16px;min-width:0;"">

          <!-- Top 40 %: robot avatar, centred -->
          <div style=""flex:0 0 40%;display:flex;flex-direction:column;align-items:center;justify-content:center;gap:10px;"">
            <img src=""stimulus/level4.png""
                 style=""width:120px;height:120px;object-fit:contain;border-radius:50%;""
                 alt="""">
            <span style=""font-size:14px;color:#555;"">機器人 A</span>
          </div>

          <!-- Bottom 60 %: chat messages -->
          <div style=""flex:1;overflow-y:auto;padding-top:6px;"">
            <div class=""chat-messages"" id=""chat-msg-area""></div>
          </div>

        </div>
      </div>
    <div class=""progress-wrap"">
      <div class=""progress-label"">第 1 段&emsp;8 / 10</div>
      <div class=""progress-track"">
        <div class=""progress-fill"" style=""width:80%""></div>
      </div>
    </div>","0","page3","","","","","","","","","","","","","","","","","","","","","","","","","","","","","","","","","","","","","","","","","","","","","","","","","","","","","","","","","","","","","","","","","","","","","","","","","","","","","","","","","","","",""
"html-button-response","51","582481","0.0-51.0","P1779430357950_IX08FB","1881","
        <div style=""text-align:center;padding-bottom:60px;"">
          <img src=""final_stimfile/spain_plaza_de_espana.jpg"" class=""stim-trial"" alt=""刺激圖片"">
          <p style=""margin-top:14px;"">
            您上次選擇的是 <strong>西班牙</strong>，
            機器人認為這裡是 <strong>西班牙</strong>，<br>
            請再次猜測您認為這張照片最可能拍攝的地點
          </p>
        </div>
    <div class=""progress-wrap"">
      <div class=""progress-label"">第 1 段&emsp;8 / 10</div>
      <div class=""progress-track"">
        <div class=""progress-fill"" style=""width:80%""></div>
      </div>
    </div>","0","page4","","","","","","","","","","","","","","","","","","","","","","","","","","","","","","","","","","","","","","","","","","","","","","","","","","","","","","","","","","","","","","","","","","","","","","","","","","","","","","","","","","","",""
"html-button-response","52","583839","0.0-52.0","P1779430357950_IX08FB","1356","
        <div style=""text-align:center;padding-bottom:60px;"">
          <img src=""final_stimfile/spain_plaza_de_espana.jpg"" class=""stim-trial"" alt=""刺激圖片"">
          <p style=""margin-top:14px;"">您剛才選擇的答案是 <strong>西班牙</strong>，請問您對此選項的信心如何？</p>
          <p style=""color:#888;font-size:13px;"">（1 分 = 非常沒信心；5 分 = 非常有信心）</p>
        </div>
    <div class=""progress-wrap"">
      <div class=""progress-label"">第 1 段&emsp;8 / 10</div>
      <div class=""progress-track"">
        <div class=""progress-fill"" style=""width:80%""></div>
      </div>
    </div>","3","trial","","","","","level4","1","0","1","8","8","spain_plaza_de_espana","西班牙","西班牙","true","4","西班牙","true","4","28933","1881","15445","1356","","","","","","","","","","","","","","","","","","","","","","","","","","","","","","","","","","","","","","","","","","","","","","","","","","","","","","","","","","","","","",""
"html-button-response","53","598483","0.0-53.0","P1779430357950_IX08FB","14643","
      <div style=""text-align:center;padding-bottom:60px;"">
        <img src=""final_stimfile/nicaragua_01_solentiname_island.jpg"" class=""stim-trial"" alt=""刺激圖片"">
        <p style=""margin-top:14px;"">請猜測您認為這張照片最可能拍攝的地點</p>
      </div>
    <div class=""progress-wrap"">
      <div class=""progress-label"">第 1 段&emsp;9 / 10</div>
      <div class=""progress-track"">
        <div class=""progress-fill"" style=""width:90%""></div>
      </div>
    </div>","0","page1","","","","","","","","","","","","","","","","","","","","","","","","","","","","","","","","","","","","","","","","","","","","","","","","","","","","","","","","","","","","","","","","","","","","","","","","","","","","","","","","","","","",""
"html-button-response","54","600373","0.0-54.0","P1779430357950_IX08FB","1889","
        <div style=""text-align:center;padding-bottom:60px;"">
          <img src=""final_stimfile/nicaragua_01_solentiname_island.jpg"" class=""stim-trial"" alt=""刺激圖片"">
          <p style=""margin-top:14px;"">您剛才選擇的答案是 <strong>尼加拉瓜</strong>，請問您對此選項的信心如何？</p>
          <p style=""color:#888;font-size:13px;"">（1 分 = 非常沒信心；5 分 = 非常有信心）</p>
        </div>
    <div class=""progress-wrap"">
      <div class=""progress-label"">第 1 段&emsp;9 / 10</div>
      <div class=""progress-track"">
        <div class=""progress-fill"" style=""width:90%""></div>
      </div>
    </div>","1","page2","","","","","","","","","","","","","","","","","","","","","","","","","","","","","","","","","","","","","","","","","","","","","","","","","","","","","","","","","","","","","","","","","","","","","","","","","","","","","","","","","","","",""
"html-button-response","55","615571","0.0-55.0","P1779430357950_IX08FB","15196","
      <div style=""display:flex;height:calc(100vh - 130px);min-height:400px;"">

        <!-- ── Left 50 %: stimulus image ── -->
        <div style=""flex:0 0 50%;display:flex;align-items:center;justify-content:center;padding:28px 16px 28px 28px;"">
          <img src=""final_stimfile/nicaragua_01_solentiname_island.jpg""
               style=""max-width:100%;max-height:100%;object-fit:contain;border-radius:6px;""
               alt=""刺激圖片"">
        </div>

        <!-- ── Right 50 %: top (avatar) + bottom (chat) ── -->
        <div style=""flex:1;display:flex;flex-direction:column;padding:16px 28px 16px 16px;min-width:0;"">

          <!-- Top 40 %: robot avatar, centred -->
          <div style=""flex:0 0 40%;display:flex;flex-direction:column;align-items:center;justify-content:center;gap:10px;"">
            <img src=""stimulus/level4.png""
                 style=""width:120px;height:120px;object-fit:contain;border-radius:50%;""
                 alt="""">
            <span style=""font-size:14px;color:#555;"">機器人 A</span>
          </div>

          <!-- Bottom 60 %: chat messages -->
          <div style=""flex:1;overflow-y:auto;padding-top:6px;"">
            <div class=""chat-messages"" id=""chat-msg-area""></div>
          </div>

        </div>
      </div>
    <div class=""progress-wrap"">
      <div class=""progress-label"">第 1 段&emsp;9 / 10</div>
      <div class=""progress-track"">
        <div class=""progress-fill"" style=""width:90%""></div>
      </div>
    </div>","0","page3","","","","","","","","","","","","","","","","","","","","","","","","","","","","","","","","","","","","","","","","","","","","","","","","","","","","","","","","","","","","","","","","","","","","","","","","","","","","","","","","","","","",""
"html-button-response","56","617404","0.0-56.0","P1779430357950_IX08FB","1832","
        <div style=""text-align:center;padding-bottom:60px;"">
          <img src=""final_stimfile/nicaragua_01_solentiname_island.jpg"" class=""stim-trial"" alt=""刺激圖片"">
          <p style=""margin-top:14px;"">
            您上次選擇的是 <strong>尼加拉瓜</strong>，
            機器人認為這裡是 <strong>尼加拉瓜</strong>，<br>
            請再次猜測您認為這張照片最可能拍攝的地點
          </p>
        </div>
    <div class=""progress-wrap"">
      <div class=""progress-label"">第 1 段&emsp;9 / 10</div>
      <div class=""progress-track"">
        <div class=""progress-fill"" style=""width:90%""></div>
      </div>
    </div>","0","page4","","","","","","","","","","","","","","","","","","","","","","","","","","","","","","","","","","","","","","","","","","","","","","","","","","","","","","","","","","","","","","","","","","","","","","","","","","","","","","","","","","","",""
"html-button-response","57","621068","0.0-57.0","P1779430357950_IX08FB","3663","
        <div style=""text-align:center;padding-bottom:60px;"">
          <img src=""final_stimfile/nicaragua_01_solentiname_island.jpg"" class=""stim-trial"" alt=""刺激圖片"">
          <p style=""margin-top:14px;"">您剛才選擇的答案是 <strong>尼加拉瓜</strong>，請問您對此選項的信心如何？</p>
          <p style=""color:#888;font-size:13px;"">（1 分 = 非常沒信心；5 分 = 非常有信心）</p>
        </div>
    <div class=""progress-wrap"">
      <div class=""progress-label"">第 1 段&emsp;9 / 10</div>
      <div class=""progress-track"">
        <div class=""progress-fill"" style=""width:90%""></div>
      </div>
    </div>","1","trial","","","","","level4","1","0","1","9","9","nicaragua_01_solentiname_island","尼加拉瓜","尼加拉瓜","true","2","尼加拉瓜","true","2","14643","1832","15196","3663","","","","","","","","","","","","","","","","","","","","","","","","","","","","","","","","","","","","","","","","","","","","","","","","","","","","","","","","","","","","","",""
"html-button-response","58","638146","0.0-58.0","P1779430357950_IX08FB","17076","
      <div style=""text-align:center;padding-bottom:60px;"">
        <img src=""final_stimfile/russia_lake_baikal.jpg"" class=""stim-trial"" alt=""刺激圖片"">
        <p style=""margin-top:14px;"">請猜測您認為這張照片最可能拍攝的地點</p>
      </div>
    <div class=""progress-wrap"">
      <div class=""progress-label"">第 1 段&emsp;10 / 10</div>
      <div class=""progress-track"">
        <div class=""progress-fill"" style=""width:100%""></div>
      </div>
    </div>","2","page1","","","","","","","","","","","","","","","","","","","","","","","","","","","","","","","","","","","","","","","","","","","","","","","","","","","","","","","","","","","","","","","","","","","","","","","","","","","","","","","","","","","",""
"html-button-response","59","639776","0.0-59.0","P1779430357950_IX08FB","1629","
        <div style=""text-align:center;padding-bottom:60px;"">
          <img src=""final_stimfile/russia_lake_baikal.jpg"" class=""stim-trial"" alt=""刺激圖片"">
          <p style=""margin-top:14px;"">您剛才選擇的答案是 <strong>加拿大</strong>，請問您對此選項的信心如何？</p>
          <p style=""color:#888;font-size:13px;"">（1 分 = 非常沒信心；5 分 = 非常有信心）</p>
        </div>
    <div class=""progress-wrap"">
      <div class=""progress-label"">第 1 段&emsp;10 / 10</div>
      <div class=""progress-track"">
        <div class=""progress-fill"" style=""width:100%""></div>
      </div>
    </div>","1","page2","","","","","","","","","","","","","","","","","","","","","","","","","","","","","","","","","","","","","","","","","","","","","","","","","","","","","","","","","","","","","","","","","","","","","","","","","","","","","","","","","","","",""
"html-button-response","60","653688","0.0-60.0","P1779430357950_IX08FB","13910","
      <div style=""display:flex;height:calc(100vh - 130px);min-height:400px;"">

        <!-- ── Left 50 %: stimulus image ── -->
        <div style=""flex:0 0 50%;display:flex;align-items:center;justify-content:center;padding:28px 16px 28px 28px;"">
          <img src=""final_stimfile/russia_lake_baikal.jpg""
               style=""max-width:100%;max-height:100%;object-fit:contain;border-radius:6px;""
               alt=""刺激圖片"">
        </div>

        <!-- ── Right 50 %: top (avatar) + bottom (chat) ── -->
        <div style=""flex:1;display:flex;flex-direction:column;padding:16px 28px 16px 16px;min-width:0;"">

          <!-- Top 40 %: robot avatar, centred -->
          <div style=""flex:0 0 40%;display:flex;flex-direction:column;align-items:center;justify-content:center;gap:10px;"">
            <img src=""stimulus/level4.png""
                 style=""width:120px;height:120px;object-fit:contain;border-radius:50%;""
                 alt="""">
            <span style=""font-size:14px;color:#555;"">機器人 A</span>
          </div>

          <!-- Bottom 60 %: chat messages -->
          <div style=""flex:1;overflow-y:auto;padding-top:6px;"">
            <div class=""chat-messages"" id=""chat-msg-area""></div>
          </div>

        </div>
      </div>
    <div class=""progress-wrap"">
      <div class=""progress-label"">第 1 段&emsp;10 / 10</div>
      <div class=""progress-track"">
        <div class=""progress-fill"" style=""width:100%""></div>
      </div>
    </div>","0","page3","","","","","","","","","","","","","","","","","","","","","","","","","","","","","","","","","","","","","","","","","","","","","","","","","","","","","","","","","","","","","","","","","","","","","","","","","","","","","","","","","","","",""
"html-button-response","61","658511","0.0-61.0","P1779430357950_IX08FB","4822","
        <div style=""text-align:center;padding-bottom:60px;"">
          <img src=""final_stimfile/russia_lake_baikal.jpg"" class=""stim-trial"" alt=""刺激圖片"">
          <p style=""margin-top:14px;"">
            您上次選擇的是 <strong>加拿大</strong>，
            機器人認為這裡是 <strong>俄羅斯</strong>，<br>
            請再次猜測您認為這張照片最可能拍攝的地點
          </p>
        </div>
    <div class=""progress-wrap"">
      <div class=""progress-label"">第 1 段&emsp;10 / 10</div>
      <div class=""progress-track"">
        <div class=""progress-fill"" style=""width:100%""></div>
      </div>
    </div>","2","page4","","","","","","","","","","","","","","","","","","","","","","","","","","","","","","","","","","","","","","","","","","","","","","","","","","","","","","","","","","","","","","","","","","","","","","","","","","","","","","","","","","","",""
"html-button-response","62","659769","0.0-62.0","P1779430357950_IX08FB","1257","
        <div style=""text-align:center;padding-bottom:60px;"">
          <img src=""final_stimfile/russia_lake_baikal.jpg"" class=""stim-trial"" alt=""刺激圖片"">
          <p style=""margin-top:14px;"">您剛才選擇的答案是 <strong>加拿大</strong>，請問您對此選項的信心如何？</p>
          <p style=""color:#888;font-size:13px;"">（1 分 = 非常沒信心；5 分 = 非常有信心）</p>
        </div>
    <div class=""progress-wrap"">
      <div class=""progress-label"">第 1 段&emsp;10 / 10</div>
      <div class=""progress-track"">
        <div class=""progress-fill"" style=""width:100%""></div>
      </div>
    </div>","1","trial","","","","","level4","1","0","1","10","10","russia_lake_baikal","俄羅斯","加拿大","false","2","加拿大","false","2","17076","4822","13910","1257","","","","","","","","","","","","","","","","","","","","","","","","","","","","","","","","","","","","","","","","","","","","","","","","","","","","","","","","","","","","","",""
"html-button-response","63","690653","0.0-63.0","P1779430357950_IX08FB","30882","
    <div class=""scale-wrap"">
      <div style=""text-align:center;margin-bottom:20px;"">
        <img src=""stimulus/level4.png""
             style=""width:80px;height:80px;object-fit:contain;border-radius:50%;""
             alt="""">
        <p style=""margin-top:10px;font-size:15px;"">以下請根據您和這位機器人互動的整體印象來回答</p>
      </div>

      
    <div class=""scale-row"">
      <span class=""scale-lbl left"">虛假的</span>
      <div class=""scale-radios"">
    <label>
      <input type=""radio"" name=""godspeed_1"" value=""1"">
      <span>1</span>
    </label>
    <label>
      <input type=""radio"" name=""godspeed_1"" value=""2"">
      <span>2</span>
    </label>
    <label>
      <input type=""radio"" name=""godspeed_1"" value=""3"">
      <span>3</span>
    </label>
    <label>
      <input type=""radio"" name=""godspeed_1"" value=""4"">
      <span>4</span>
    </label>
    <label>
      <input type=""radio"" name=""godspeed_1"" value=""5"">
      <span>5</span>
    </label></div>
      <span class=""scale-lbl right"">自然的</span>
    </div>
    <div class=""scale-row"">
      <span class=""scale-lbl left"">似機械的</span>
      <div class=""scale-radios"">
    <label>
      <input type=""radio"" name=""godspeed_2"" value=""1"">
      <span>1</span>
    </label>
    <label>
      <input type=""radio"" name=""godspeed_2"" value=""2"">
      <span>2</span>
    </label>
    <label>
      <input type=""radio"" name=""godspeed_2"" value=""3"">
      <span>3</span>
    </label>
    <label>
      <input type=""radio"" name=""godspeed_2"" value=""4"">
      <span>4</span>
    </label>
    <label>
      <input type=""radio"" name=""godspeed_2"" value=""5"">
      <span>5</span>
    </label></div>
      <span class=""scale-lbl right"">似人類的</span>
    </div>
    <div class=""scale-row"">
      <span class=""scale-lbl left"">無意識的</span>
      <div class=""scale-radios"">
    <label>
      <input type=""radio"" name=""godspeed_3"" value=""1"">
      <span>1</span>
    </label>
    <label>
      <input type=""radio"" name=""godspeed_3"" value=""2"">
      <span>2</span>
    </label>
    <label>
      <input type=""radio"" name=""godspeed_3"" value=""3"">
      <span>3</span>
    </label>
    <label>
      <input type=""radio"" name=""godspeed_3"" value=""4"">
      <span>4</span>
    </label>
    <label>
      <input type=""radio"" name=""godspeed_3"" value=""5"">
      <span>5</span>
    </label></div>
      <span class=""scale-lbl right"">有意識的</span>
    </div>
    <div class=""scale-row"">
      <span class=""scale-lbl left"">人工的</span>
      <div class=""scale-radios"">
    <label>
      <input type=""radio"" name=""godspeed_4"" value=""1"">
      <span>1</span>
    </label>
    <label>
      <input type=""radio"" name=""godspeed_4"" value=""2"">
      <span>2</span>
    </label>
    <label>
      <input type=""radio"" name=""godspeed_4"" value=""3"">
      <span>3</span>
    </label>
    <label>
      <input type=""radio"" name=""godspeed_4"" value=""4"">
      <span>4</span>
    </label>
    <label>
      <input type=""radio"" name=""godspeed_4"" value=""5"">
      <span>5</span>
    </label></div>
      <span class=""scale-lbl right"">逼真的</span>
    </div>
    <div class=""scale-row"">
      <span class=""scale-lbl left"">不喜歡</span>
      <div class=""scale-radios"">
    <label>
      <input type=""radio"" name=""godspeed_5"" value=""1"">
      <span>1</span>
    </label>
    <label>
      <input type=""radio"" name=""godspeed_5"" value=""2"">
      <span>2</span>
    </label>
    <label>
      <input type=""radio"" name=""godspeed_5"" value=""3"">
      <span>3</span>
    </label>
    <label>
      <input type=""radio"" name=""godspeed_5"" value=""4"">
      <span>4</span>
    </label>
    <label>
      <input type=""radio"" name=""godspeed_5"" value=""5"">
      <span>5</span>
    </label></div>
      <span class=""scale-lbl right"">喜歡</span>
    </div>

      <div style=""border-top:1px solid #ddd;margin:14px 0;""></div>

      
    <div class=""scale-row"">
      <span class=""scale-lbl left"">不友好的</span>
      <div class=""scale-radios"">
    <label>
      <input type=""radio"" name=""godspeed_6"" value=""1"">
      <span>1</span>
    </label>
    <label>
      <input type=""radio"" name=""godspeed_6"" value=""2"">
      <span>2</span>
    </label>
    <label>
      <input type=""radio"" name=""godspeed_6"" value=""3"">
      <span>3</span>
    </label>
    <label>
      <input type=""radio"" name=""godspeed_6"" value=""4"">
      <span>4</span>
    </label>
    <label>
      <input type=""radio"" name=""godspeed_6"" value=""5"">
      <span>5</span>
    </label></div>
      <span class=""scale-lbl right"">友好的</span>
    </div>
    <div class=""scale-row"">
      <span class=""scale-lbl left"">不親切的</span>
      <div class=""scale-radios"">
    <label>
      <input type=""radio"" name=""godspeed_7"" value=""1"">
      <span>1</span>
    </label>
    <label>
      <input type=""radio"" name=""godspeed_7"" value=""2"">
      <span>2</span>
    </label>
    <label>
      <input type=""radio"" name=""godspeed_7"" value=""3"">
      <span>3</span>
    </label>
    <label>
      <input type=""radio"" name=""godspeed_7"" value=""4"">
      <span>4</span>
    </label>
    <label>
      <input type=""radio"" name=""godspeed_7"" value=""5"">
      <span>5</span>
    </label></div>
      <span class=""scale-lbl right"">親切的</span>
    </div>
    <div class=""scale-row"">
      <span class=""scale-lbl left"">不愉快的</span>
      <div class=""scale-radios"">
    <label>
      <input type=""radio"" name=""godspeed_8"" value=""1"">
      <span>1</span>
    </label>
    <label>
      <input type=""radio"" name=""godspeed_8"" value=""2"">
      <span>2</span>
    </label>
    <label>
      <input type=""radio"" name=""godspeed_8"" value=""3"">
      <span>3</span>
    </label>
    <label>
      <input type=""radio"" name=""godspeed_8"" value=""4"">
      <span>4</span>
    </label>
    <label>
      <input type=""radio"" name=""godspeed_8"" value=""5"">
      <span>5</span>
    </label></div>
      <span class=""scale-lbl right"">愉快的</span>
    </div>
    <div class=""scale-row"">
      <span class=""scale-lbl left"">惡劣的</span>
      <div class=""scale-radios"">
    <label>
      <input type=""radio"" name=""godspeed_9"" value=""1"">
      <span>1</span>
    </label>
    <label>
      <input type=""radio"" name=""godspeed_9"" value=""2"">
      <span>2</span>
    </label>
    <label>
      <input type=""radio"" name=""godspeed_9"" value=""3"">
      <span>3</span>
    </label>
    <label>
      <input type=""radio"" name=""godspeed_9"" value=""4"">
      <span>4</span>
    </label>
    <label>
      <input type=""radio"" name=""godspeed_9"" value=""5"">
      <span>5</span>
    </label></div>
      <span class=""scale-lbl right"">良好的</span>
    </div>

      <div style=""border-top:1px solid #ddd;margin:14px 0;""></div>

      <p style=""font-size:14px;color:#555;margin:6px 0 10px;"">
        整體而言，請問您有多相信本輪機器人所提供的答案？
      </p>
      
    <div class=""scale-row"">
      <span class=""scale-lbl left"">非常不相信</span>
      <div class=""scale-radios"">
    <label>
      <input type=""radio"" name=""trust"" value=""1"">
      <span>1</span>
    </label>
    <label>
      <input type=""radio"" name=""trust"" value=""2"">
      <span>2</span>
    </label>
    <label>
      <input type=""radio"" name=""trust"" value=""3"">
      <span>3</span>
    </label>
    <label>
      <input type=""radio"" name=""trust"" value=""4"">
      <span>4</span>
    </label>
    <label>
      <input type=""radio"" name=""trust"" value=""5"">
      <span>5</span>
    </label></div>
      <span class=""scale-lbl right"">非常相信</span>
    </div>

      <div id=""scale-error"">請回答所有題目後再送出</div>
    </div>","0","scale","","","","","level4","1","0","1","","","","","","","","","","","","","","","2","2","2","2","3","3","3","3","4","3","","","","","","","","","","","","","","","","","","","","","","","","","","","","","","","","","","","","","","","","","","","","","","","","","","","",""
"html-button-response","64","692601","0.0-64.0","P1779430357950_IX08FB","1944","
      <div class=""page-wrap"">
        <h2>第 2 / 4 段</h2>
        <p style=""font-size:18px;color:#555;"">休息一下，準備好後請按「下一頁」繼續</p>
      </div>","0","rest","","","","","","","","","","","","","","","","","","","","","","","","","","","","","","","","","","","","","","","","","","","","","","","","","","","","","","","","","","","","","","","","","","","","","","","","","","","","","","","","","","","",""
"html-button-response","65","699269","0.0-65.0","P1779430357950_IX08FB","6666","
      <div class=""page-wrap"">
        <p style=""font-size:18px;"">接下來您將與以下機器人進行對話</p>
        <img src=""stimulus/level1.png""
             class=""robot-intro-img"" alt=""機器人頭像"">
        <p style=""font-size:14px;color:#888;margin-top:14px;"">請等待五秒後，點按下一頁</p>
      </div>","0","robot_intro","","","","","level1","","","","","","","","","","","","","","","","","","","","","","","","","","","","","","","","","","","","","","","","","","","","","","","","","","","","","","","","","","","","","","","","","","","","","","","","","","","","","","",""
"html-button-response","66","706129","0.0-66.0","P1779430357950_IX08FB","6860","
      <div style=""text-align:center;padding-bottom:60px;"">
        <img src=""final_stimfile/italy_01_san_benigno_canavese-torre_dellabbazia_della_fruttuaria.jpg"" class=""stim-trial"" alt=""刺激圖片"">
        <p style=""margin-top:14px;"">請猜測您認為這張照片最可能拍攝的地點</p>
      </div>
    <div class=""progress-wrap"">
      <div class=""progress-label"">第 2 段&emsp;1 / 10</div>
      <div class=""progress-track"">
        <div class=""progress-fill"" style=""width:10%""></div>
      </div>
    </div>","0","page1","","","","","","","","","","","","","","","","","","","","","","","","","","","","","","","","","","","","","","","","","","","","","","","","","","","","","","","","","","","","","","","","","","","","","","","","","","","","","","","","","","","",""
"html-button-response","67","708294","0.0-67.0","P1779430357950_IX08FB","2164","
        <div style=""text-align:center;padding-bottom:60px;"">
          <img src=""final_stimfile/italy_01_san_benigno_canavese-torre_dellabbazia_della_fruttuaria.jpg"" class=""stim-trial"" alt=""刺激圖片"">
          <p style=""margin-top:14px;"">您剛才選擇的答案是 <strong>義大利</strong>，請問您對此選項的信心如何？</p>
          <p style=""color:#888;font-size:13px;"">（1 分 = 非常沒信心；5 分 = 非常有信心）</p>
        </div>
    <div class=""progress-wrap"">
      <div class=""progress-label"">第 2 段&emsp;1 / 10</div>
      <div class=""progress-track"">
        <div class=""progress-fill"" style=""width:10%""></div>
      </div>
    </div>","1","page2","","","","","","","","","","","","","","","","","","","","","","","","","","","","","","","","","","","","","","","","","","","","","","","","","","","","","","","","","","","","","","","","","","","","","","","","","","","","","","","","","","","",""
"html-button-response","68","722575","0.0-68.0","P1779430357950_IX08FB","14279","
      <div style=""display:flex;height:calc(100vh - 130px);min-height:400px;"">

        <!-- ── Left 50 %: stimulus image ── -->
        <div style=""flex:0 0 50%;display:flex;align-items:center;justify-content:center;padding:28px 16px 28px 28px;"">
          <img src=""final_stimfile/italy_01_san_benigno_canavese-torre_dellabbazia_della_fruttuaria.jpg""
               style=""max-width:100%;max-height:100%;object-fit:contain;border-radius:6px;""
               alt=""刺激圖片"">
        </div>

        <!-- ── Right 50 %: top (avatar) + bottom (chat) ── -->
        <div style=""flex:1;display:flex;flex-direction:column;padding:16px 28px 16px 16px;min-width:0;"">

          <!-- Top 40 %: robot avatar, centred -->
          <div style=""flex:0 0 40%;display:flex;flex-direction:column;align-items:center;justify-content:center;gap:10px;"">
            <img src=""stimulus/level1.png""
                 style=""width:120px;height:120px;object-fit:contain;border-radius:50%;""
                 alt="""">
            <span style=""font-size:14px;color:#555;"">機器人 B</span>
          </div>

          <!-- Bottom 60 %: chat messages -->
          <div style=""flex:1;overflow-y:auto;padding-top:6px;"">
            <div class=""chat-messages"" id=""chat-msg-area""></div>
          </div>

        </div>
      </div>
    <div class=""progress-wrap"">
      <div class=""progress-label"">第 2 段&emsp;1 / 10</div>
      <div class=""progress-track"">
        <div class=""progress-fill"" style=""width:10%""></div>
      </div>
    </div>","0","page3","","","","","","","","","","","","","","","","","","","","","","","","","","","","","","","","","","","","","","","","","","","","","","","","","","","","","","","","","","","","","","","","","","","","","","","","","","","","","","","","","","","",""
"html-button-response","69","725612","0.0-69.0","P1779430357950_IX08FB","3036","
        <div style=""text-align:center;padding-bottom:60px;"">
          <img src=""final_stimfile/italy_01_san_benigno_canavese-torre_dellabbazia_della_fruttuaria.jpg"" class=""stim-trial"" alt=""刺激圖片"">
          <p style=""margin-top:14px;"">
            您上次選擇的是 <strong>義大利</strong>，
            機器人認為這裡是 <strong>義大利</strong>，<br>
            請再次猜測您認為這張照片最可能拍攝的地點
          </p>
        </div>
    <div class=""progress-wrap"">
      <div class=""progress-label"">第 2 段&emsp;1 / 10</div>
      <div class=""progress-track"">
        <div class=""progress-fill"" style=""width:10%""></div>
      </div>
    </div>","0","page4","","","","","","","","","","","","","","","","","","","","","","","","","","","","","","","","","","","","","","","","","","","","","","","","","","","","","","","","","","","","","","","","","","","","","","","","","","","","","","","","","","","",""
"html-button-response","70","727873","0.0-70.0","P1779430357950_IX08FB","2260","
        <div style=""text-align:center;padding-bottom:60px;"">
          <img src=""final_stimfile/italy_01_san_benigno_canavese-torre_dellabbazia_della_fruttuaria.jpg"" class=""stim-trial"" alt=""刺激圖片"">
          <p style=""margin-top:14px;"">您剛才選擇的答案是 <strong>義大利</strong>，請問您對此選項的信心如何？</p>
          <p style=""color:#888;font-size:13px;"">（1 分 = 非常沒信心；5 分 = 非常有信心）</p>
        </div>
    <div class=""progress-wrap"">
      <div class=""progress-label"">第 2 段&emsp;1 / 10</div>
      <div class=""progress-track"">
        <div class=""progress-fill"" style=""width:10%""></div>
      </div>
    </div>","2","trial","","","","","level1","1","1","2","1","11","italy_01_san_benigno_canavese-torre_dellabbazia_della_fruttuaria","義大利","義大利","true","2","義大利","true","3","6860","3036","14279","2260","","","","","","","","","","","","","","","","","","","","","","","","","","","","","","","","","","","","","","","","","","","","","","","","","","","","","","","","","","","","","",""
"html-button-response","71","746664","0.0-71.0","P1779430357950_IX08FB","18790","
      <div style=""text-align:center;padding-bottom:60px;"">
        <img src=""final_stimfile/egypt_01_al-qurn_egypt_-_panoramio_2.jpg"" class=""stim-trial"" alt=""刺激圖片"">
        <p style=""margin-top:14px;"">請猜測您認為這張照片最可能拍攝的地點</p>
      </div>
    <div class=""progress-wrap"">
      <div class=""progress-label"">第 2 段&emsp;2 / 10</div>
      <div class=""progress-track"">
        <div class=""progress-fill"" style=""width:20%""></div>
      </div>
    </div>","1","page1","","","","","","","","","","","","","","","","","","","","","","","","","","","","","","","","","","","","","","","","","","","","","","","","","","","","","","","","","","","","","","","","","","","","","","","","","","","","","","","","","","","",""
"html-button-response","72","749300","0.0-72.0","P1779430357950_IX08FB","2635","
        <div style=""text-align:center;padding-bottom:60px;"">
          <img src=""final_stimfile/egypt_01_al-qurn_egypt_-_panoramio_2.jpg"" class=""stim-trial"" alt=""刺激圖片"">
          <p style=""margin-top:14px;"">您剛才選擇的答案是 <strong>約旦</strong>，請問您對此選項的信心如何？</p>
          <p style=""color:#888;font-size:13px;"">（1 分 = 非常沒信心；5 分 = 非常有信心）</p>
        </div>
    <div class=""progress-wrap"">
      <div class=""progress-label"">第 2 段&emsp;2 / 10</div>
      <div class=""progress-track"">
        <div class=""progress-fill"" style=""width:20%""></div>
      </div>
    </div>","1","page2","","","","","","","","","","","","","","","","","","","","","","","","","","","","","","","","","","","","","","","","","","","","","","","","","","","","","","","","","","","","","","","","","","","","","","","","","","","","","","","","","","","",""
"html-button-response","73","761503","0.0-73.0","P1779430357950_IX08FB","12202","
      <div style=""display:flex;height:calc(100vh - 130px);min-height:400px;"">

        <!-- ── Left 50 %: stimulus image ── -->
        <div style=""flex:0 0 50%;display:flex;align-items:center;justify-content:center;padding:28px 16px 28px 28px;"">
          <img src=""final_stimfile/egypt_01_al-qurn_egypt_-_panoramio_2.jpg""
               style=""max-width:100%;max-height:100%;object-fit:contain;border-radius:6px;""
               alt=""刺激圖片"">
        </div>

        <!-- ── Right 50 %: top (avatar) + bottom (chat) ── -->
        <div style=""flex:1;display:flex;flex-direction:column;padding:16px 28px 16px 16px;min-width:0;"">

          <!-- Top 40 %: robot avatar, centred -->
          <div style=""flex:0 0 40%;display:flex;flex-direction:column;align-items:center;justify-content:center;gap:10px;"">
            <img src=""stimulus/level1.png""
                 style=""width:120px;height:120px;object-fit:contain;border-radius:50%;""
                 alt="""">
            <span style=""font-size:14px;color:#555;"">機器人 B</span>
          </div>

          <!-- Bottom 60 %: chat messages -->
          <div style=""flex:1;overflow-y:auto;padding-top:6px;"">
            <div class=""chat-messages"" id=""chat-msg-area""></div>
          </div>

        </div>
      </div>
    <div class=""progress-wrap"">
      <div class=""progress-label"">第 2 段&emsp;2 / 10</div>
      <div class=""progress-track"">
        <div class=""progress-fill"" style=""width:20%""></div>
      </div>
    </div>","0","page3","","","","","","","","","","","","","","","","","","","","","","","","","","","","","","","","","","","","","","","","","","","","","","","","","","","","","","","","","","","","","","","","","","","","","","","","","","","","","","","","","","","",""
"html-button-response","74","786852","0.0-74.0","P1779430357950_IX08FB","25348","
        <div style=""text-align:center;padding-bottom:60px;"">
          <img src=""final_stimfile/egypt_01_al-qurn_egypt_-_panoramio_2.jpg"" class=""stim-trial"" alt=""刺激圖片"">
          <p style=""margin-top:14px;"">
            您上次選擇的是 <strong>約旦</strong>，
            機器人認為這裡是 <strong>埃及</strong>，<br>
            請再次猜測您認為這張照片最可能拍攝的地點
          </p>
        </div>
    <div class=""progress-wrap"">
      <div class=""progress-label"">第 2 段&emsp;2 / 10</div>
      <div class=""progress-track"">
        <div class=""progress-fill"" style=""width:20%""></div>
      </div>
    </div>","2","page4","","","","","","","","","","","","","","","","","","","","","","","","","","","","","","","","","","","","","","","","","","","","","","","","","","","","","","","","","","","","","","","","","","","","","","","","","","","","","","","","","","","",""
"html-button-response","75","788737","0.0-75.0","P1779430357950_IX08FB","1884","
        <div style=""text-align:center;padding-bottom:60px;"">
          <img src=""final_stimfile/egypt_01_al-qurn_egypt_-_panoramio_2.jpg"" class=""stim-trial"" alt=""刺激圖片"">
          <p style=""margin-top:14px;"">您剛才選擇的答案是 <strong>智利</strong>，請問您對此選項的信心如何？</p>
          <p style=""color:#888;font-size:13px;"">（1 分 = 非常沒信心；5 分 = 非常有信心）</p>
        </div>
    <div class=""progress-wrap"">
      <div class=""progress-label"">第 2 段&emsp;2 / 10</div>
      <div class=""progress-track"">
        <div class=""progress-fill"" style=""width:20%""></div>
      </div>
    </div>","1","trial","","","","","level1","1","1","2","2","12","egypt_01_al-qurn_egypt_-_panoramio_2","埃及","約旦","false","2","智利","false","2","18790","25348","12202","1884","","","","","","","","","","","","","","","","","","","","","","","","","","","","","","","","","","","","","","","","","","","","","","","","","","","","","","","","","","","","","",""
"html-button-response","76","808178","0.0-76.0","P1779430357950_IX08FB","19440","
      <div style=""text-align:center;padding-bottom:60px;"">
        <img src=""final_stimfile/us_yellowstone.jpg"" class=""stim-trial"" alt=""刺激圖片"">
        <p style=""margin-top:14px;"">請猜測您認為這張照片最可能拍攝的地點</p>
      </div>
    <div class=""progress-wrap"">
      <div class=""progress-label"">第 2 段&emsp;3 / 10</div>
      <div class=""progress-track"">
        <div class=""progress-fill"" style=""width:30%""></div>
      </div>
    </div>","0","page1","","","","","","","","","","","","","","","","","","","","","","","","","","","","","","","","","","","","","","","","","","","","","","","","","","","","","","","","","","","","","","","","","","","","","","","","","","","","","","","","","","","",""
"html-button-response","77","810354","0.0-77.0","P1779430357950_IX08FB","2174","
        <div style=""text-align:center;padding-bottom:60px;"">
          <img src=""final_stimfile/us_yellowstone.jpg"" class=""stim-trial"" alt=""刺激圖片"">
          <p style=""margin-top:14px;"">您剛才選擇的答案是 <strong>美國</strong>，請問您對此選項的信心如何？</p>
          <p style=""color:#888;font-size:13px;"">（1 分 = 非常沒信心；5 分 = 非常有信心）</p>
        </div>
    <div class=""progress-wrap"">
      <div class=""progress-label"">第 2 段&emsp;3 / 10</div>
      <div class=""progress-track"">
        <div class=""progress-fill"" style=""width:30%""></div>
      </div>
    </div>","1","page2","","","","","","","","","","","","","","","","","","","","","","","","","","","","","","","","","","","","","","","","","","","","","","","","","","","","","","","","","","","","","","","","","","","","","","","","","","","","","","","","","","","",""
"html-button-response","78","821926","0.0-78.0","P1779430357950_IX08FB","11571","
      <div style=""display:flex;height:calc(100vh - 130px);min-height:400px;"">

        <!-- ── Left 50 %: stimulus image ── -->
        <div style=""flex:0 0 50%;display:flex;align-items:center;justify-content:center;padding:28px 16px 28px 28px;"">
          <img src=""final_stimfile/us_yellowstone.jpg""
               style=""max-width:100%;max-height:100%;object-fit:contain;border-radius:6px;""
               alt=""刺激圖片"">
        </div>

        <!-- ── Right 50 %: top (avatar) + bottom (chat) ── -->
        <div style=""flex:1;display:flex;flex-direction:column;padding:16px 28px 16px 16px;min-width:0;"">

          <!-- Top 40 %: robot avatar, centred -->
          <div style=""flex:0 0 40%;display:flex;flex-direction:column;align-items:center;justify-content:center;gap:10px;"">
            <img src=""stimulus/level1.png""
                 style=""width:120px;height:120px;object-fit:contain;border-radius:50%;""
                 alt="""">
            <span style=""font-size:14px;color:#555;"">機器人 B</span>
          </div>

          <!-- Bottom 60 %: chat messages -->
          <div style=""flex:1;overflow-y:auto;padding-top:6px;"">
            <div class=""chat-messages"" id=""chat-msg-area""></div>
          </div>

        </div>
      </div>
    <div class=""progress-wrap"">
      <div class=""progress-label"">第 2 段&emsp;3 / 10</div>
      <div class=""progress-track"">
        <div class=""progress-fill"" style=""width:30%""></div>
      </div>
    </div>","0","page3","","","","","","","","","","","","","","","","","","","","","","","","","","","","","","","","","","","","","","","","","","","","","","","","","","","","","","","","","","","","","","","","","","","","","","","","","","","","","","","","","","","",""
"html-button-response","79","823785","0.0-79.0","P1779430357950_IX08FB","1858","
        <div style=""text-align:center;padding-bottom:60px;"">
          <img src=""final_stimfile/us_yellowstone.jpg"" class=""stim-trial"" alt=""刺激圖片"">
          <p style=""margin-top:14px;"">
            您上次選擇的是 <strong>美國</strong>，
            機器人認為這裡是 <strong>美國</strong>，<br>
            請再次猜測您認為這張照片最可能拍攝的地點
          </p>
        </div>
    <div class=""progress-wrap"">
      <div class=""progress-label"">第 2 段&emsp;3 / 10</div>
      <div class=""progress-track"">
        <div class=""progress-fill"" style=""width:30%""></div>
      </div>
    </div>","0","page4","","","","","","","","","","","","","","","","","","","","","","","","","","","","","","","","","","","","","","","","","","","","","","","","","","","","","","","","","","","","","","","","","","","","","","","","","","","","","","","","","","","",""
"html-button-response","80","825722","0.0-80.0","P1779430357950_IX08FB","1935","
        <div style=""text-align:center;padding-bottom:60px;"">
          <img src=""final_stimfile/us_yellowstone.jpg"" class=""stim-trial"" alt=""刺激圖片"">
          <p style=""margin-top:14px;"">您剛才選擇的答案是 <strong>美國</strong>，請問您對此選項的信心如何？</p>
          <p style=""color:#888;font-size:13px;"">（1 分 = 非常沒信心；5 分 = 非常有信心）</p>
        </div>
    <div class=""progress-wrap"">
      <div class=""progress-label"">第 2 段&emsp;3 / 10</div>
      <div class=""progress-track"">
        <div class=""progress-fill"" style=""width:30%""></div>
      </div>
    </div>","2","trial","","","","","level1","1","1","2","3","13","us_yellowstone","美國","美國","true","2","美國","true","3","19440","1858","11571","1935","","","","","","","","","","","","","","","","","","","","","","","","","","","","","","","","","","","","","","","","","","","","","","","","","","","","","","","","","","","","","",""
"html-button-response","81","849508","0.0-81.0","P1779430357950_IX08FB","23785","
      <div style=""text-align:center;padding-bottom:60px;"">
        <img src=""final_stimfile/columnbia_santuariade_neustra_sanctuary.jpg"" class=""stim-trial"" alt=""刺激圖片"">
        <p style=""margin-top:14px;"">請猜測您認為這張照片最可能拍攝的地點</p>
      </div>
    <div class=""progress-wrap"">
      <div class=""progress-label"">第 2 段&emsp;4 / 10</div>
      <div class=""progress-track"">
        <div class=""progress-fill"" style=""width:40%""></div>
      </div>
    </div>","2","page1","","","","","","","","","","","","","","","","","","","","","","","","","","","","","","","","","","","","","","","","","","","","","","","","","","","","","","","","","","","","","","","","","","","","","","","","","","","","","","","","","","","",""
"html-button-response","82","851217","0.0-82.0","P1779430357950_IX08FB","1708","
        <div style=""text-align:center;padding-bottom:60px;"">
          <img src=""final_stimfile/columnbia_santuariade_neustra_sanctuary.jpg"" class=""stim-trial"" alt=""刺激圖片"">
          <p style=""margin-top:14px;"">您剛才選擇的答案是 <strong>葡萄牙</strong>，請問您對此選項的信心如何？</p>
          <p style=""color:#888;font-size:13px;"">（1 分 = 非常沒信心；5 分 = 非常有信心）</p>
        </div>
    <div class=""progress-wrap"">
      <div class=""progress-label"">第 2 段&emsp;4 / 10</div>
      <div class=""progress-track"">
        <div class=""progress-fill"" style=""width:40%""></div>
      </div>
    </div>","1","page2","","","","","","","","","","","","","","","","","","","","","","","","","","","","","","","","","","","","","","","","","","","","","","","","","","","","","","","","","","","","","","","","","","","","","","","","","","","","","","","","","","","",""
"html-button-response","83","861966","0.0-83.0","P1779430357950_IX08FB","10747","
      <div style=""display:flex;height:calc(100vh - 130px);min-height:400px;"">

        <!-- ── Left 50 %: stimulus image ── -->
        <div style=""flex:0 0 50%;display:flex;align-items:center;justify-content:center;padding:28px 16px 28px 28px;"">
          <img src=""final_stimfile/columnbia_santuariade_neustra_sanctuary.jpg""
               style=""max-width:100%;max-height:100%;object-fit:contain;border-radius:6px;""
               alt=""刺激圖片"">
        </div>

        <!-- ── Right 50 %: top (avatar) + bottom (chat) ── -->
        <div style=""flex:1;display:flex;flex-direction:column;padding:16px 28px 16px 16px;min-width:0;"">

          <!-- Top 40 %: robot avatar, centred -->
          <div style=""flex:0 0 40%;display:flex;flex-direction:column;align-items:center;justify-content:center;gap:10px;"">
            <img src=""stimulus/level1.png""
                 style=""width:120px;height:120px;object-fit:contain;border-radius:50%;""
                 alt="""">
            <span style=""font-size:14px;color:#555;"">機器人 B</span>
          </div>

          <!-- Bottom 60 %: chat messages -->
          <div style=""flex:1;overflow-y:auto;padding-top:6px;"">
            <div class=""chat-messages"" id=""chat-msg-area""></div>
          </div>

        </div>
      </div>
    <div class=""progress-wrap"">
      <div class=""progress-label"">第 2 段&emsp;4 / 10</div>
      <div class=""progress-track"">
        <div class=""progress-fill"" style=""width:40%""></div>
      </div>
    </div>","0","page3","","","","","","","","","","","","","","","","","","","","","","","","","","","","","","","","","","","","","","","","","","","","","","","","","","","","","","","","","","","","","","","","","","","","","","","","","","","","","","","","","","","",""
"html-button-response","84","863963","0.0-84.0","P1779430357950_IX08FB","1996","
        <div style=""text-align:center;padding-bottom:60px;"">
          <img src=""final_stimfile/columnbia_santuariade_neustra_sanctuary.jpg"" class=""stim-trial"" alt=""刺激圖片"">
          <p style=""margin-top:14px;"">
            您上次選擇的是 <strong>葡萄牙</strong>，
            機器人認為這裡是 <strong>哥倫比亞</strong>，<br>
            請再次猜測您認為這張照片最可能拍攝的地點
          </p>
        </div>
    <div class=""progress-wrap"">
      <div class=""progress-label"">第 2 段&emsp;4 / 10</div>
      <div class=""progress-track"">
        <div class=""progress-fill"" style=""width:40%""></div>
      </div>
    </div>","0","page4","","","","","","","","","","","","","","","","","","","","","","","","","","","","","","","","","","","","","","","","","","","","","","","","","","","","","","","","","","","","","","","","","","","","","","","","","","","","","","","","","","","",""
"html-button-response","85","866118","0.0-85.0","P1779430357950_IX08FB","2153","
        <div style=""text-align:center;padding-bottom:60px;"">
          <img src=""final_stimfile/columnbia_santuariade_neustra_sanctuary.jpg"" class=""stim-trial"" alt=""刺激圖片"">
          <p style=""margin-top:14px;"">您剛才選擇的答案是 <strong>哥倫比亞</strong>，請問您對此選項的信心如何？</p>
          <p style=""color:#888;font-size:13px;"">（1 分 = 非常沒信心；5 分 = 非常有信心）</p>
        </div>
    <div class=""progress-wrap"">
      <div class=""progress-label"">第 2 段&emsp;4 / 10</div>
      <div class=""progress-track"">
