"trial_type","trial_index","time_elapsed","internal_node_id","participant_id","rt","stimulus","response","data_type","consented","demo_name","demo_gender","demo_age","robot_avatar","robot_index","robot_style","trial_number","global_trial_number","stim_file","correct_answer","guess_1","guess_1_correct","guess_1_confidence","guess_2","guess_2_correct","guess_2_confidence","guess_1_rt","guess_2_rt","godspeed_1","godspeed_2","godspeed_3","godspeed_4","godspeed_5","godspeed_6","godspeed_7","godspeed_8","godspeed_9","trust","mai_1","mai_2","mai_3","mai_4","mai_5","mai_6","mai_7","mai_8","mai_9","mai_10","mai_11","mai_12","mai_13","mai_14","mai_15","mai_16","mai_17","mai_18","mai_19","mai_20","mai_21","mai_22","mai_23","mai_24","mai_25","mai_26","mai_27","mai_28","mai_29","mai_30","mai_31","mai_32","mai_33","mai_34","mai_35","mai_36","mai_37","mai_38","mai_39","mai_40","mai_41","mai_42","mai_43","mai_44","mai_45","mai_46","mai_47","mai_48","mai_49","mai_50","mai_51","mai_52"
"pavlovia","0","2355","0.0-0.0","P1779169273798_KMZ9I2","","","","","","","","","","","","","","","","","","","","","","","","","","","","","","","","","","","","","","","","","","","","","","","","","","","","","","","","","","","","","","","","","","","","","","","","","","","","","","","","","","","","",""
"html-button-response","1","8651","0.0-1.0","P1779169273798_KMZ9I2","6295","
      <div style=""max-width:680px;margin:0 auto;padding:30px 20px;line-height:1.9;font-size:15px;"">
        <h2 style=""margin-bottom:24px;"">歡迎參加本實驗！</h2>
        <p>本實驗旨在了解對地景的判斷，及與機器人共同完成作業的決策歷程。本實驗包含三個部分：<br>
        （一）個人資料填答<br>
        （二）猜測地景拍攝地點的主要實驗<br>
        （三）後測問卷</p>
        <p style=""color:#c0392b;"">注意，本實驗無回上一頁選項，在實驗各階段，皆請務必確認答案再進入下一頁。</p>
        <p>以上資訊若有問題請來信聯絡實驗聯絡人，若確認了解並同意以上資訊，請勾選同意，並按確認鍵開始填答基本資料。</p>
        <label style=""display:flex;align-items:center;justify-content:center;gap:10px;margin-top:20px;font-size:15px;cursor:pointer;"">
          <input type=""checkbox"" id=""consent-check"" style=""width:20px;height:20px;cursor:pointer;"">
          我同意參與本實驗
        </label>
      </div>","0","consent","true","","","","","","","","","","","","","","","","","","","","","","","","","","","","","","","","","","","","","","","","","","","","","","","","","","","","","","","","","","","","","","","","","","","","","","","","","","","","","","","",""
"html-button-response","2","15250","0.0-2.0","P1779169273798_KMZ9I2","6592","
      <div style=""max-width:680px;margin:0 auto;padding:30px 20px;line-height:1.9;font-size:15px;"">
        <h3 style=""font-weight:bold;margin-bottom:24px;"">第一部分：個人資料</h3>
        <div style=""display:flex;align-items:center;gap:14px;margin:14px 0;"">
          <label style=""min-width:140px;font-size:15px;""><strong>您的姓名（選填）：</strong></label>
          <input type=""text"" id=""demo-name"" placeholder=""請輸入""
            style=""width:260px;padding:6px 10px;font-size:15px;border:0;border-bottom:1px solid #999;outline:none;background:transparent;"">
        </div>
        <div style=""display:flex;align-items:center;gap:14px;margin:14px 0;"">
          <label style=""min-width:140px;font-size:15px;""><strong>性別（必填）：</strong></label>
          <div style=""display:flex;gap:20px;"">
            <label style=""cursor:pointer;white-space:nowrap;""><input type=""radio"" name=""demo-gender"" value=""生理女""> 生理女</label>
            <label style=""cursor:pointer;white-space:nowrap;""><input type=""radio"" name=""demo-gender"" value=""生理男""> 生理男</label>
            <label style=""cursor:pointer;white-space:nowrap;""><input type=""radio"" name=""demo-gender"" value=""不願透露""> 不願透露</label>
          </div>
        </div>
        <div style=""display:flex;align-items:center;gap:14px;margin:14px 0;"">
          <label style=""min-width:140px;font-size:15px;""><strong>年齡（必填）：</strong></label>
          <input type=""number"" id=""demo-age"" min=""1"" max=""120"" step=""1"" placeholder=""請輸入""
            style=""width:100px;padding:6px 10px;font-size:15px;border:0;border-bottom:1px solid #999;outline:none;background:transparent;"">
          <span id=""age-error"" style=""color:#c0392b;font-size:13px;margin-left:8px;display:none;"">請輸入正整數</span>
        </div>
      </div>","0","demographics","","dd","生理女","22","","","","","","","","","","","","","","","","","","","","","","","","","","","","","","","","","","","","","","","","","","","","","","","","","","","","","","","","","","","","","","","","","","","","","","","","","","","","",""
"html-button-response","3","16004","0.0-3.0","P1779169273798_KMZ9I2","753","
      <div style=""max-width:680px;margin:0 auto;padding:30px 20px;line-height:1.9;font-size:15px;"">
        <h3 style=""font-weight:bold;margin-bottom:16px;"">第二部分：正式實驗</h3>
        <p>在本部分的實驗中，您需要觀看一些地景照片，並從四個選項中選擇您認為正確的拍攝地點，之後選擇您對該猜測的信心程度，確定您的選擇後，請按確認進入下一頁。</p>
        <p>了解以上資訊後，請按確認鍵開始練習以上部分的實驗。</p>
      </div>","0","instruction","","","","","","","","","","","","","","","","","","","","","","","","","","","","","","","","","","","","","","","","","","","","","","","","","","","","","","","","","","","","","","","","","","","","","","","","","","","","","","","","",""
"html-button-response","4","17114","0.0-4.0","P1779169273798_KMZ9I2","1109","
      <div style=""text-align:center;padding-bottom:60px;"">
        <img src=""final_stimfile/arabia_sheikh_zayed_palace.jpg"" class=""stim-trial"" alt=""練習圖片"">
        <p style=""margin-top:14px;"">請猜測您認為這張照片最可能拍攝的地點</p>
      </div>","1","practice","","","","","","","","","","","","","","","","","","","","","","","","","","","","","","","","","","","","","","","","","","","","","","","","","","","","","","","","","","","","","","","","","","","","","","","","","","","","","","","","",""
"html-button-response","5","17859","0.0-5.0","P1779169273798_KMZ9I2","744","
        <div style=""text-align:center;padding-bottom:60px;"">
          <img src=""final_stimfile/arabia_sheikh_zayed_palace.jpg"" class=""stim-trial"" alt=""練習圖片"">
          <p style=""margin-top:14px;"">您剛才選擇的答案是 <strong>摩洛哥</strong>，請問您對此選項的信心如何？</p>
          <p style=""color:#888;font-size:13px;"">（1 分 = 非常沒信心；5 分 = 非常有信心）</p>
        </div>","3","practice","","","","","","","","","","","","","","","","","","","","","","","","","","","","","","","","","","","","","","","","","","","","","","","","","","","","","","","","","","","","","","","","","","","","","","","","","","","","","","","","",""
"html-button-response","6","18650","0.0-6.0","P1779169273798_KMZ9I2","790","
      <div style=""max-width:680px;margin:0 auto;padding:30px 20px;line-height:1.9;font-size:15px;"">
        <p>每一題在您完成如先前頁面的選擇後，會展示一段機器人關於本題的作答想法。</p>
        <p style=""color:#c0392b;"">注意：本機器人訓練時模擬人類回應行為，因此答案未必完全正確，請務必仔細評估內容及答案之後再決定是否採用機器人答案。</p>
        <p>在觀看完機器人的作答想法後，會請您再次猜測本題答案，並評估您對答案的信心程度。</p>
        <p>了解以上資訊後，請按確認鍵開始練習以上部分的實驗。</p>
      </div>","0","instruction","","","","","","","","","","","","","","","","","","","","","","","","","","","","","","","","","","","","","","","","","","","","","","","","","","","","","","","","","","","","","","","","","","","","","","","","","","","","","","","","",""
"html-button-response","7","51211","0.0-7.0","P1779169273798_KMZ9I2","32559","
      <div style=""display:flex;height:calc(100vh - 130px);min-height:400px;"">

        <!-- ── Left 50 %: stimulus image ── -->
        <div style=""flex:0 0 50%;display:flex;align-items:center;justify-content:center;padding:28px 16px 28px 28px;"">
          <img src=""final_stimfile/arabia_sheikh_zayed_palace.jpg""
               style=""max-width:100%;max-height:100%;object-fit:contain;border-radius:6px;""
               alt=""刺激圖片"">
        </div>

        <!-- ── Right 50 %: top (avatar) + bottom (chat) ── -->
        <div style=""flex:1;display:flex;flex-direction:column;padding:16px 28px 16px 16px;min-width:0;"">

          <!-- Top 40 %: robot avatar, centred -->
          <div style=""flex:0 0 40%;display:flex;flex-direction:column;align-items:center;justify-content:center;gap:10px;"">
            <img src=""stimulus/level1.png""
                 style=""width:120px;height:120px;object-fit:contain;border-radius:50%;""
                 alt="""">
            <span style=""font-size:14px;color:#555;"">練習機器人</span>
          </div>

          <!-- Bottom 60 %: chat messages -->
          <div style=""flex:1;overflow-y:auto;padding-top:6px;"">
            <div class=""chat-messages"" id=""chat-msg-area""></div>
          </div>

        </div>
      </div>","0","page3","","","","","","","","","","","","","","","","","","","","","","","","","","","","","","","","","","","","","","","","","","","","","","","","","","","","","","","","","","","","","","","","","","","","","","","","","","","","","","","","",""
"html-button-response","8","52292","0.0-8.0","P1779169273798_KMZ9I2","1081","
        <div style=""text-align:center;padding-bottom:60px;"">
          <img src=""final_stimfile/arabia_sheikh_zayed_palace.jpg"" class=""stim-trial"" alt=""練習圖片"">
          <p style=""margin-top:14px;"">
            您上次選擇的是 <strong>摩洛哥</strong>，
            機器人認為這裡是 <strong>阿拉伯聯合大公國</strong>，<br>
            請再次猜測您認為這張照片最可能拍攝的地點
          </p>
        </div>","2","practice","","","","","","","","","","","","","","","","","","","","","","","","","","","","","","","","","","","","","","","","","","","","","","","","","","","","","","","","","","","","","","","","","","","","","","","","","","","","","","","","",""
"html-button-response","9","53179","0.0-9.0","P1779169273798_KMZ9I2","885","
        <div style=""text-align:center;padding-bottom:60px;"">
          <img src=""final_stimfile/arabia_sheikh_zayed_palace.jpg"" class=""stim-trial"" alt=""練習圖片"">
          <p style=""margin-top:14px;"">您剛才選擇的答案是 <strong>西班牙</strong>，請問您對此選項的信心如何？</p>
          <p style=""color:#888;font-size:13px;"">（1 分 = 非常沒信心；5 分 = 非常有信心）</p>
        </div>","3","practice","","","","","","","","","","","","","","","","","","","","","","","","","","","","","","","","","","","","","","","","","","","","","","","","","","","","","","","","","","","","","","","","","","","","","","","","","","","","","","","","",""
"html-button-response","10","148025","0.0-10.0","P1779169273798_KMZ9I2","94845","
      <div style=""max-width:680px;margin:0 auto;padding:30px 20px;line-height:1.9;font-size:15px;"">
        <p style=""color:#c0392b;"">本實驗共有四輪，每輪有十五張圖。不同輪次之間，會由不同的機器人提供作答想法。</p>
        <p>每一輪於十五張圖片回答完成後，會請您評估一些關於本輪機器人的看法。</p>
        <p>若以上資訊有問題，可來信詢問實驗者，若無其他疑問，請按確認開始正式實驗。</p>
      </div>","0","instruction","","","","","","","","","","","","","","","","","","","","","","","","","","","","","","","","","","","","","","","","","","","","","","","","","","","","","","","","","","","","","","","","","","","","","","","","","","","","","","","","",""
"html-button-response","11","149057","0.0-11.0","P1779169273798_KMZ9I2","1031","
      <div class=""page-wrap"">
        <h2>第 1 / 4 段</h2>
        <p style=""font-size:18px;color:#555;"">休息一下，準備好後請按「下一頁」繼續</p>
      </div>","0","rest","","","","","","","","","","","","","","","","","","","","","","","","","","","","","","","","","","","","","","","","","","","","","","","","","","","","","","","","","","","","","","","","","","","","","","","","","","","","","","","","",""
"html-button-response","12","154635","0.0-12.0","P1779169273798_KMZ9I2","5577","
      <div class=""page-wrap"">
        <p style=""font-size:18px;"">接下來您將與以下機器人進行對話</p>
        <img src=""stimulus/level1.png""
             class=""robot-intro-img"" alt=""機器人頭像"">
        <p style=""font-size:14px;color:#888;margin-top:14px;"">請等待五秒後，點按下一頁</p>
      </div>","0","robot_intro","","","","","level1","","","","","","","","","","","","","","","","","","","","","","","","","","","","","","","","","","","","","","","","","","","","","","","","","","","","","","","","","","","","","","","","","","","","","","","","","","","",""
"html-button-response","13","155345","0.0-13.0","P1779169273798_KMZ9I2","709","
      <div style=""text-align:center;padding-bottom:60px;"">
        <img src=""final_stimfile/chile_atacama_desert.jpg"" class=""stim-trial"" alt=""刺激圖片"">
        <p style=""margin-top:14px;"">請猜測您認為這張照片最可能拍攝的地點</p>
      </div>
    <div class=""progress-wrap"">
      <div class=""progress-label"">第 1 段&emsp;1 / 10</div>
      <div class=""progress-track"">
        <div class=""progress-fill"" style=""width:10%""></div>
      </div>
    </div>","1","page1","","","","","","","","","","","","","","","","","","","","","","","","","","","","","","","","","","","","","","","","","","","","","","","","","","","","","","","","","","","","","","","","","","","","","","","","","","","","","","","","",""
"html-button-response","14","158291","0.0-14.0","P1779169273798_KMZ9I2","2945","
        <div style=""text-align:center;padding-bottom:60px;"">
          <img src=""final_stimfile/chile_atacama_desert.jpg"" class=""stim-trial"" alt=""刺激圖片"">
          <p style=""margin-top:14px;"">您剛才選擇的答案是 <strong>埃及</strong>，請問您對此選項的信心如何？</p>
          <p style=""color:#888;font-size:13px;"">（1 分 = 非常沒信心；5 分 = 非常有信心）</p>
        </div>
    <div class=""progress-wrap"">
      <div class=""progress-label"">第 1 段&emsp;1 / 10</div>
      <div class=""progress-track"">
        <div class=""progress-fill"" style=""width:10%""></div>
      </div>
    </div>","1","page2","","","","","","","","","","","","","","","","","","","","","","","","","","","","","","","","","","","","","","","","","","","","","","","","","","","","","","","","","","","","","","","","","","","","","","","","","","","","","","","","",""
"html-button-response","15","170539","0.0-15.0","P1779169273798_KMZ9I2","12246","
      <div style=""display:flex;height:calc(100vh - 130px);min-height:400px;"">

        <!-- ── Left 50 %: stimulus image ── -->
        <div style=""flex:0 0 50%;display:flex;align-items:center;justify-content:center;padding:28px 16px 28px 28px;"">
          <img src=""final_stimfile/chile_atacama_desert.jpg""
               style=""max-width:100%;max-height:100%;object-fit:contain;border-radius:6px;""
               alt=""刺激圖片"">
        </div>

        <!-- ── Right 50 %: top (avatar) + bottom (chat) ── -->
        <div style=""flex:1;display:flex;flex-direction:column;padding:16px 28px 16px 16px;min-width:0;"">

          <!-- Top 40 %: robot avatar, centred -->
          <div style=""flex:0 0 40%;display:flex;flex-direction:column;align-items:center;justify-content:center;gap:10px;"">
            <img src=""stimulus/level1.png""
                 style=""width:120px;height:120px;object-fit:contain;border-radius:50%;""
                 alt="""">
            <span style=""font-size:14px;color:#555;"">機器人 A</span>
          </div>

          <!-- Bottom 60 %: chat messages -->
          <div style=""flex:1;overflow-y:auto;padding-top:6px;"">
            <div class=""chat-messages"" id=""chat-msg-area""></div>
          </div>

        </div>
      </div>
    <div class=""progress-wrap"">
      <div class=""progress-label"">第 1 段&emsp;1 / 10</div>
      <div class=""progress-track"">
        <div class=""progress-fill"" style=""width:10%""></div>
      </div>
    </div>","0","page3","","","","","","","","","","","","","","","","","","","","","","","","","","","","","","","","","","","","","","","","","","","","","","","","","","","","","","","","","","","","","","","","","","","","","","","","","","","","","","","","",""
"html-button-response","16","171547","0.0-16.0","P1779169273798_KMZ9I2","1006","
        <div style=""text-align:center;padding-bottom:60px;"">
          <img src=""final_stimfile/chile_atacama_desert.jpg"" class=""stim-trial"" alt=""刺激圖片"">
          <p style=""margin-top:14px;"">
            您上次選擇的是 <strong>埃及</strong>，
            機器人認為這裡是 <strong>智利</strong>，<br>
            請再次猜測您認為這張照片最可能拍攝的地點
          </p>
        </div>
    <div class=""progress-wrap"">
      <div class=""progress-label"">第 1 段&emsp;1 / 10</div>
      <div class=""progress-track"">
        <div class=""progress-fill"" style=""width:10%""></div>
      </div>
    </div>","2","page4","","","","","","","","","","","","","","","","","","","","","","","","","","","","","","","","","","","","","","","","","","","","","","","","","","","","","","","","","","","","","","","","","","","","","","","","","","","","","","","","",""
"html-button-response","17","172130","0.0-17.0","P1779169273798_KMZ9I2","581","
        <div style=""text-align:center;padding-bottom:60px;"">
          <img src=""final_stimfile/chile_atacama_desert.jpg"" class=""stim-trial"" alt=""刺激圖片"">
          <p style=""margin-top:14px;"">您剛才選擇的答案是 <strong>伊朗</strong>，請問您對此選項的信心如何？</p>
          <p style=""color:#888;font-size:13px;"">（1 分 = 非常沒信心；5 分 = 非常有信心）</p>
        </div>
    <div class=""progress-wrap"">
      <div class=""progress-label"">第 1 段&emsp;1 / 10</div>
      <div class=""progress-track"">
        <div class=""progress-fill"" style=""width:10%""></div>
      </div>
    </div>","2","trial","","","","","level1","0","0","1","1","chile_atacama_desert","智利","埃及","false","2","伊朗","false","3","709","581","","","","","","","","","","","","","","","","","","","","","","","","","","","","","","","","","","","","","","","","","","","","","","","","","","","","","","","","","","","","","",""
"html-button-response","18","172761","0.0-18.0","P1779169273798_KMZ9I2","630","
      <div style=""text-align:center;padding-bottom:60px;"">
        <img src=""final_stimfile/austria_hallstatt.jpg"" class=""stim-trial"" alt=""刺激圖片"">
        <p style=""margin-top:14px;"">請猜測您認為這張照片最可能拍攝的地點</p>
      </div>
    <div class=""progress-wrap"">
      <div class=""progress-label"">第 1 段&emsp;2 / 10</div>
      <div class=""progress-track"">
        <div class=""progress-fill"" style=""width:20%""></div>
      </div>
    </div>","2","page1","","","","","","","","","","","","","","","","","","","","","","","","","","","","","","","","","","","","","","","","","","","","","","","","","","","","","","","","","","","","","","","","","","","","","","","","","","","","","","","","",""
"html-button-response","19","173323","0.0-19.0","P1779169273798_KMZ9I2","561","
        <div style=""text-align:center;padding-bottom:60px;"">
          <img src=""final_stimfile/austria_hallstatt.jpg"" class=""stim-trial"" alt=""刺激圖片"">
          <p style=""margin-top:14px;"">您剛才選擇的答案是 <strong>智利</strong>，請問您對此選項的信心如何？</p>
          <p style=""color:#888;font-size:13px;"">（1 分 = 非常沒信心；5 分 = 非常有信心）</p>
        </div>
    <div class=""progress-wrap"">
      <div class=""progress-label"">第 1 段&emsp;2 / 10</div>
      <div class=""progress-track"">
        <div class=""progress-fill"" style=""width:20%""></div>
      </div>
    </div>","2","page2","","","","","","","","","","","","","","","","","","","","","","","","","","","","","","","","","","","","","","","","","","","","","","","","","","","","","","","","","","","","","","","","","","","","","","","","","","","","","","","","",""
"html-button-response","20","189229","0.0-20.0","P1779169273798_KMZ9I2","15905","
      <div style=""display:flex;height:calc(100vh - 130px);min-height:400px;"">

        <!-- ── Left 50 %: stimulus image ── -->
        <div style=""flex:0 0 50%;display:flex;align-items:center;justify-content:center;padding:28px 16px 28px 28px;"">
          <img src=""final_stimfile/austria_hallstatt.jpg""
               style=""max-width:100%;max-height:100%;object-fit:contain;border-radius:6px;""
               alt=""刺激圖片"">
        </div>

        <!-- ── Right 50 %: top (avatar) + bottom (chat) ── -->
        <div style=""flex:1;display:flex;flex-direction:column;padding:16px 28px 16px 16px;min-width:0;"">

          <!-- Top 40 %: robot avatar, centred -->
          <div style=""flex:0 0 40%;display:flex;flex-direction:column;align-items:center;justify-content:center;gap:10px;"">
            <img src=""stimulus/level1.png""
                 style=""width:120px;height:120px;object-fit:contain;border-radius:50%;""
                 alt="""">
            <span style=""font-size:14px;color:#555;"">機器人 A</span>
          </div>

          <!-- Bottom 60 %: chat messages -->
          <div style=""flex:1;overflow-y:auto;padding-top:6px;"">
            <div class=""chat-messages"" id=""chat-msg-area""></div>
          </div>

        </div>
      </div>
    <div class=""progress-wrap"">
      <div class=""progress-label"">第 1 段&emsp;2 / 10</div>
      <div class=""progress-track"">
        <div class=""progress-fill"" style=""width:20%""></div>
      </div>
    </div>","0","page3","","","","","","","","","","","","","","","","","","","","","","","","","","","","","","","","","","","","","","","","","","","","","","","","","","","","","","","","","","","","","","","","","","","","","","","","","","","","","","","","",""
"html-button-response","21","189953","0.0-21.0","P1779169273798_KMZ9I2","723","
        <div style=""text-align:center;padding-bottom:60px;"">
          <img src=""final_stimfile/austria_hallstatt.jpg"" class=""stim-trial"" alt=""刺激圖片"">
          <p style=""margin-top:14px;"">
            您上次選擇的是 <strong>智利</strong>，
            機器人認為這裡是 <strong>奧地利</strong>，<br>
            請再次猜測您認為這張照片最可能拍攝的地點
          </p>
        </div>
    <div class=""progress-wrap"">
      <div class=""progress-label"">第 1 段&emsp;2 / 10</div>
      <div class=""progress-track"">
        <div class=""progress-fill"" style=""width:20%""></div>
      </div>
    </div>","2","page4","","","","","","","","","","","","","","","","","","","","","","","","","","","","","","","","","","","","","","","","","","","","","","","","","","","","","","","","","","","","","","","","","","","","","","","","","","","","","","","","",""
"html-button-response","22","190593","0.0-22.0","P1779169273798_KMZ9I2","639","
        <div style=""text-align:center;padding-bottom:60px;"">
          <img src=""final_stimfile/austria_hallstatt.jpg"" class=""stim-trial"" alt=""刺激圖片"">
          <p style=""margin-top:14px;"">您剛才選擇的答案是 <strong>智利</strong>，請問您對此選項的信心如何？</p>
          <p style=""color:#888;font-size:13px;"">（1 分 = 非常沒信心；5 分 = 非常有信心）</p>
        </div>
    <div class=""progress-wrap"">
      <div class=""progress-label"">第 1 段&emsp;2 / 10</div>
      <div class=""progress-track"">
        <div class=""progress-fill"" style=""width:20%""></div>
      </div>
    </div>","2","trial","","","","","level1","0","0","2","2","austria_hallstatt","奧地利","智利","false","3","智利","false","3","630","639","","","","","","","","","","","","","","","","","","","","","","","","","","","","","","","","","","","","","","","","","","","","","","","","","","","","","","","","","","","","","",""
"html-button-response","23","191137","0.0-23.0","P1779169273798_KMZ9I2","543","
      <div style=""text-align:center;padding-bottom:60px;"">
        <img src=""final_stimfile/ethopia_lalibela_rock_churches.jpg"" class=""stim-trial"" alt=""刺激圖片"">
        <p style=""margin-top:14px;"">請猜測您認為這張照片最可能拍攝的地點</p>
      </div>
    <div class=""progress-wrap"">
      <div class=""progress-label"">第 1 段&emsp;3 / 10</div>
      <div class=""progress-track"">
        <div class=""progress-fill"" style=""width:30%""></div>
      </div>
    </div>","1","page1","","","","","","","","","","","","","","","","","","","","","","","","","","","","","","","","","","","","","","","","","","","","","","","","","","","","","","","","","","","","","","","","","","","","","","","","","","","","","","","","",""
"html-button-response","24","191729","0.0-24.0","P1779169273798_KMZ9I2","591","
        <div style=""text-align:center;padding-bottom:60px;"">
          <img src=""final_stimfile/ethopia_lalibela_rock_churches.jpg"" class=""stim-trial"" alt=""刺激圖片"">
          <p style=""margin-top:14px;"">您剛才選擇的答案是 <strong>印度</strong>，請問您對此選項的信心如何？</p>
          <p style=""color:#888;font-size:13px;"">（1 分 = 非常沒信心；5 分 = 非常有信心）</p>
        </div>
    <div class=""progress-wrap"">
      <div class=""progress-label"">第 1 段&emsp;3 / 10</div>
      <div class=""progress-track"">
        <div class=""progress-fill"" style=""width:30%""></div>
      </div>
    </div>","2","page2","","","","","","","","","","","","","","","","","","","","","","","","","","","","","","","","","","","","","","","","","","","","","","","","","","","","","","","","","","","","","","","","","","","","","","","","","","","","","","","","",""
"html-button-response","25","208179","0.0-25.0","P1779169273798_KMZ9I2","16449","
      <div style=""display:flex;height:calc(100vh - 130px);min-height:400px;"">

        <!-- ── Left 50 %: stimulus image ── -->
        <div style=""flex:0 0 50%;display:flex;align-items:center;justify-content:center;padding:28px 16px 28px 28px;"">
          <img src=""final_stimfile/ethopia_lalibela_rock_churches.jpg""
               style=""max-width:100%;max-height:100%;object-fit:contain;border-radius:6px;""
               alt=""刺激圖片"">
        </div>

        <!-- ── Right 50 %: top (avatar) + bottom (chat) ── -->
        <div style=""flex:1;display:flex;flex-direction:column;padding:16px 28px 16px 16px;min-width:0;"">

          <!-- Top 40 %: robot avatar, centred -->
          <div style=""flex:0 0 40%;display:flex;flex-direction:column;align-items:center;justify-content:center;gap:10px;"">
            <img src=""stimulus/level1.png""
                 style=""width:120px;height:120px;object-fit:contain;border-radius:50%;""
                 alt="""">
            <span style=""font-size:14px;color:#555;"">機器人 A</span>
          </div>

          <!-- Bottom 60 %: chat messages -->
          <div style=""flex:1;overflow-y:auto;padding-top:6px;"">
            <div class=""chat-messages"" id=""chat-msg-area""></div>
          </div>

        </div>
      </div>
    <div class=""progress-wrap"">
      <div class=""progress-label"">第 1 段&emsp;3 / 10</div>
      <div class=""progress-track"">
        <div class=""progress-fill"" style=""width:30%""></div>
      </div>
    </div>","0","page3","","","","","","","","","","","","","","","","","","","","","","","","","","","","","","","","","","","","","","","","","","","","","","","","","","","","","","","","","","","","","","","","","","","","","","","","","","","","","","","","",""
"html-button-response","26","209402","0.0-26.0","P1779169273798_KMZ9I2","1222","
        <div style=""text-align:center;padding-bottom:60px;"">
          <img src=""final_stimfile/ethopia_lalibela_rock_churches.jpg"" class=""stim-trial"" alt=""刺激圖片"">
          <p style=""margin-top:14px;"">
            您上次選擇的是 <strong>印度</strong>，
            機器人認為這裡是 <strong>衣索比亞</strong>，<br>
            請再次猜測您認為這張照片最可能拍攝的地點
          </p>
        </div>
    <div class=""progress-wrap"">
      <div class=""progress-label"">第 1 段&emsp;3 / 10</div>
      <div class=""progress-track"">
        <div class=""progress-fill"" style=""width:30%""></div>
      </div>
    </div>","0","page4","","","","","","","","","","","","","","","","","","","","","","","","","","","","","","","","","","","","","","","","","","","","","","","","","","","","","","","","","","","","","","","","","","","","","","","","","","","","","","","","",""
"html-button-response","27","210162","0.0-27.0","P1779169273798_KMZ9I2","759","
        <div style=""text-align:center;padding-bottom:60px;"">
          <img src=""final_stimfile/ethopia_lalibela_rock_churches.jpg"" class=""stim-trial"" alt=""刺激圖片"">
          <p style=""margin-top:14px;"">您剛才選擇的答案是 <strong>衣索比亞</strong>，請問您對此選項的信心如何？</p>
          <p style=""color:#888;font-size:13px;"">（1 分 = 非常沒信心；5 分 = 非常有信心）</p>
        </div>
    <div class=""progress-wrap"">
      <div class=""progress-label"">第 1 段&emsp;3 / 10</div>
      <div class=""progress-track"">
        <div class=""progress-fill"" style=""width:30%""></div>
      </div>
    </div>","2","trial","","","","","level1","0","0","3","3","ethopia_lalibela_rock_churches","衣索比亞","印度","false","3","衣索比亞","true","3","543","759","","","","","","","","","","","","","","","","","","","","","","","","","","","","","","","","","","","","","","","","","","","","","","","","","","","","","","","","","","","","","",""
"html-button-response","28","210793","0.0-28.0","P1779169273798_KMZ9I2","630","
      <div style=""text-align:center;padding-bottom:60px;"">
        <img src=""final_stimfile/spain_02_2017_08_41_adarra_aballarri.jpg"" class=""stim-trial"" alt=""刺激圖片"">
        <p style=""margin-top:14px;"">請猜測您認為這張照片最可能拍攝的地點</p>
      </div>
    <div class=""progress-wrap"">
      <div class=""progress-label"">第 1 段&emsp;4 / 10</div>
      <div class=""progress-track"">
        <div class=""progress-fill"" style=""width:40%""></div>
      </div>
    </div>","1","page1","","","","","","","","","","","","","","","","","","","","","","","","","","","","","","","","","","","","","","","","","","","","","","","","","","","","","","","","","","","","","","","","","","","","","","","","","","","","","","","","",""
"html-button-response","29","211585","0.0-29.0","P1779169273798_KMZ9I2","791","
        <div style=""text-align:center;padding-bottom:60px;"">
          <img src=""final_stimfile/spain_02_2017_08_41_adarra_aballarri.jpg"" class=""stim-trial"" alt=""刺激圖片"">
          <p style=""margin-top:14px;"">您剛才選擇的答案是 <strong>智利</strong>，請問您對此選項的信心如何？</p>
          <p style=""color:#888;font-size:13px;"">（1 分 = 非常沒信心；5 分 = 非常有信心）</p>
        </div>
    <div class=""progress-wrap"">
      <div class=""progress-label"">第 1 段&emsp;4 / 10</div>
      <div class=""progress-track"">
        <div class=""progress-fill"" style=""width:40%""></div>
      </div>
    </div>","2","page2","","","","","","","","","","","","","","","","","","","","","","","","","","","","","","","","","","","","","","","","","","","","","","","","","","","","","","","","","","","","","","","","","","","","","","","","","","","","","","","","",""
"html-button-response","30","226141","0.0-30.0","P1779169273798_KMZ9I2","14555","
      <div style=""display:flex;height:calc(100vh - 130px);min-height:400px;"">

        <!-- ── Left 50 %: stimulus image ── -->
        <div style=""flex:0 0 50%;display:flex;align-items:center;justify-content:center;padding:28px 16px 28px 28px;"">
          <img src=""final_stimfile/spain_02_2017_08_41_adarra_aballarri.jpg""
               style=""max-width:100%;max-height:100%;object-fit:contain;border-radius:6px;""
               alt=""刺激圖片"">
        </div>

        <!-- ── Right 50 %: top (avatar) + bottom (chat) ── -->
        <div style=""flex:1;display:flex;flex-direction:column;padding:16px 28px 16px 16px;min-width:0;"">

          <!-- Top 40 %: robot avatar, centred -->
          <div style=""flex:0 0 40%;display:flex;flex-direction:column;align-items:center;justify-content:center;gap:10px;"">
            <img src=""stimulus/level1.png""
                 style=""width:120px;height:120px;object-fit:contain;border-radius:50%;""
                 alt="""">
            <span style=""font-size:14px;color:#555;"">機器人 A</span>
          </div>

          <!-- Bottom 60 %: chat messages -->
          <div style=""flex:1;overflow-y:auto;padding-top:6px;"">
            <div class=""chat-messages"" id=""chat-msg-area""></div>
          </div>

        </div>
      </div>
    <div class=""progress-wrap"">
      <div class=""progress-label"">第 1 段&emsp;4 / 10</div>
      <div class=""progress-track"">
        <div class=""progress-fill"" style=""width:40%""></div>
      </div>
    </div>","0","page3","","","","","","","","","","","","","","","","","","","","","","","","","","","","","","","","","","","","","","","","","","","","","","","","","","","","","","","","","","","","","","","","","","","","","","","","","","","","","","","","",""
"html-button-response","31","226673","0.0-31.0","P1779169273798_KMZ9I2","531","
        <div style=""text-align:center;padding-bottom:60px;"">
          <img src=""final_stimfile/spain_02_2017_08_41_adarra_aballarri.jpg"" class=""stim-trial"" alt=""刺激圖片"">
          <p style=""margin-top:14px;"">
            您上次選擇的是 <strong>智利</strong>，
            機器人認為這裡是 <strong>西班牙</strong>，<br>
            請再次猜測您認為這張照片最可能拍攝的地點
          </p>
        </div>
    <div class=""progress-wrap"">
      <div class=""progress-label"">第 1 段&emsp;4 / 10</div>
      <div class=""progress-track"">
        <div class=""progress-fill"" style=""width:40%""></div>
      </div>
    </div>","1","page4","","","","","","","","","","","","","","","","","","","","","","","","","","","","","","","","","","","","","","","","","","","","","","","","","","","","","","","","","","","","","","","","","","","","","","","","","","","","","","","","",""
"html-button-response","32","227275","0.0-32.0","P1779169273798_KMZ9I2","601","
        <div style=""text-align:center;padding-bottom:60px;"">
          <img src=""final_stimfile/spain_02_2017_08_41_adarra_aballarri.jpg"" class=""stim-trial"" alt=""刺激圖片"">
          <p style=""margin-top:14px;"">您剛才選擇的答案是 <strong>智利</strong>，請問您對此選項的信心如何？</p>
          <p style=""color:#888;font-size:13px;"">（1 分 = 非常沒信心；5 分 = 非常有信心）</p>
        </div>
    <div class=""progress-wrap"">
      <div class=""progress-label"">第 1 段&emsp;4 / 10</div>
      <div class=""progress-track"">
        <div class=""progress-fill"" style=""width:40%""></div>
      </div>
    </div>","2","trial","","","","","level1","0","0","4","4","spain_02_2017_08_41_adarra_aballarri","西班牙","智利","false","3","智利","false","3","630","601","","","","","","","","","","","","","","","","","","","","","","","","","","","","","","","","","","","","","","","","","","","","","","","","","","","","","","","","","","","","","",""
"html-button-response","33","228098","0.0-33.0","P1779169273798_KMZ9I2","821","
      <div style=""text-align:center;padding-bottom:60px;"">
        <img src=""final_stimfile/russia_lake_baikal.jpg"" class=""stim-trial"" alt=""刺激圖片"">
        <p style=""margin-top:14px;"">請猜測您認為這張照片最可能拍攝的地點</p>
      </div>
    <div class=""progress-wrap"">
      <div class=""progress-label"">第 1 段&emsp;5 / 10</div>
      <div class=""progress-track"">
        <div class=""progress-fill"" style=""width:50%""></div>
      </div>
    </div>","1","page1","","","","","","","","","","","","","","","","","","","","","","","","","","","","","","","","","","","","","","","","","","","","","","","","","","","","","","","","","","","","","","","","","","","","","","","","","","","","","","","","",""
"html-button-response","34","228778","0.0-34.0","P1779169273798_KMZ9I2","679","
        <div style=""text-align:center;padding-bottom:60px;"">
          <img src=""final_stimfile/russia_lake_baikal.jpg"" class=""stim-trial"" alt=""刺激圖片"">
          <p style=""margin-top:14px;"">您剛才選擇的答案是 <strong>中國</strong>，請問您對此選項的信心如何？</p>
          <p style=""color:#888;font-size:13px;"">（1 分 = 非常沒信心；5 分 = 非常有信心）</p>
        </div>
    <div class=""progress-wrap"">
      <div class=""progress-label"">第 1 段&emsp;5 / 10</div>
      <div class=""progress-track"">
        <div class=""progress-fill"" style=""width:50%""></div>
      </div>
    </div>","2","page2","","","","","","","","","","","","","","","","","","","","","","","","","","","","","","","","","","","","","","","","","","","","","","","","","","","","","","","","","","","","","","","","","","","","","","","","","","","","","","","","",""
"html-button-response","35","239433","0.0-35.0","P1779169273798_KMZ9I2","10654","
      <div style=""display:flex;height:calc(100vh - 130px);min-height:400px;"">

        <!-- ── Left 50 %: stimulus image ── -->
        <div style=""flex:0 0 50%;display:flex;align-items:center;justify-content:center;padding:28px 16px 28px 28px;"">
          <img src=""final_stimfile/russia_lake_baikal.jpg""
               style=""max-width:100%;max-height:100%;object-fit:contain;border-radius:6px;""
               alt=""刺激圖片"">
        </div>

        <!-- ── Right 50 %: top (avatar) + bottom (chat) ── -->
        <div style=""flex:1;display:flex;flex-direction:column;padding:16px 28px 16px 16px;min-width:0;"">

          <!-- Top 40 %: robot avatar, centred -->
          <div style=""flex:0 0 40%;display:flex;flex-direction:column;align-items:center;justify-content:center;gap:10px;"">
            <img src=""stimulus/level1.png""
                 style=""width:120px;height:120px;object-fit:contain;border-radius:50%;""
                 alt="""">
            <span style=""font-size:14px;color:#555;"">機器人 A</span>
          </div>

          <!-- Bottom 60 %: chat messages -->
          <div style=""flex:1;overflow-y:auto;padding-top:6px;"">
            <div class=""chat-messages"" id=""chat-msg-area""></div>
          </div>

        </div>
      </div>
    <div class=""progress-wrap"">
      <div class=""progress-label"">第 1 段&emsp;5 / 10</div>
      <div class=""progress-track"">
        <div class=""progress-fill"" style=""width:50%""></div>
      </div>
    </div>","0","page3","","","","","","","","","","","","","","","","","","","","","","","","","","","","","","","","","","","","","","","","","","","","","","","","","","","","","","","","","","","","","","","","","","","","","","","","","","","","","","","","",""
"html-button-response","36","240290","0.0-36.0","P1779169273798_KMZ9I2","856","
        <div style=""text-align:center;padding-bottom:60px;"">
          <img src=""final_stimfile/russia_lake_baikal.jpg"" class=""stim-trial"" alt=""刺激圖片"">
          <p style=""margin-top:14px;"">
            您上次選擇的是 <strong>中國</strong>，
            機器人認為這裡是 <strong>俄羅斯</strong>，<br>
            請再次猜測您認為這張照片最可能拍攝的地點
          </p>
        </div>
    <div class=""progress-wrap"">
      <div class=""progress-label"">第 1 段&emsp;5 / 10</div>
      <div class=""progress-track"">
        <div class=""progress-fill"" style=""width:50%""></div>
      </div>
    </div>","2","page4","","","","","","","","","","","","","","","","","","","","","","","","","","","","","","","","","","","","","","","","","","","","","","","","","","","","","","","","","","","","","","","","","","","","","","","","","","","","","","","","",""
"html-button-response","37","240691","0.0-37.0","P1779169273798_KMZ9I2","400","
        <div style=""text-align:center;padding-bottom:60px;"">
          <img src=""final_stimfile/russia_lake_baikal.jpg"" class=""stim-trial"" alt=""刺激圖片"">
          <p style=""margin-top:14px;"">您剛才選擇的答案是 <strong>加拿大</strong>，請問您對此選項的信心如何？</p>
          <p style=""color:#888;font-size:13px;"">（1 分 = 非常沒信心；5 分 = 非常有信心）</p>
        </div>
    <div class=""progress-wrap"">
      <div class=""progress-label"">第 1 段&emsp;5 / 10</div>
      <div class=""progress-track"">
        <div class=""progress-fill"" style=""width:50%""></div>
      </div>
    </div>","2","trial","","","","","level1","0","0","5","5","russia_lake_baikal","俄羅斯","中國","false","3","加拿大","false","3","821","400","","","","","","","","","","","","","","","","","","","","","","","","","","","","","","","","","","","","","","","","","","","","","","","","","","","","","","","","","","","","","",""
"html-button-response","38","241769","0.0-38.0","P1779169273798_KMZ9I2","1076","
      <div style=""text-align:center;padding-bottom:60px;"">
        <img src=""final_stimfile/greenisland_02_brynjudalur.jpg"" class=""stim-trial"" alt=""刺激圖片"">
        <p style=""margin-top:14px;"">請猜測您認為這張照片最可能拍攝的地點</p>
      </div>
    <div class=""progress-wrap"">
      <div class=""progress-label"">第 1 段&emsp;6 / 10</div>
      <div class=""progress-track"">
        <div class=""progress-fill"" style=""width:60%""></div>
      </div>
    </div>","1","page1","","","","","","","","","","","","","","","","","","","","","","","","","","","","","","","","","","","","","","","","","","","","","","","","","","","","","","","","","","","","","","","","","","","","","","","","","","","","","","","","",""
"html-button-response","39","242179","0.0-39.0","P1779169273798_KMZ9I2","408","
        <div style=""text-align:center;padding-bottom:60px;"">
          <img src=""final_stimfile/greenisland_02_brynjudalur.jpg"" class=""stim-trial"" alt=""刺激圖片"">
          <p style=""margin-top:14px;"">您剛才選擇的答案是 <strong>紐西蘭</strong>，請問您對此選項的信心如何？</p>
          <p style=""color:#888;font-size:13px;"">（1 分 = 非常沒信心；5 分 = 非常有信心）</p>
        </div>
    <div class=""progress-wrap"">
      <div class=""progress-label"">第 1 段&emsp;6 / 10</div>
      <div class=""progress-track"">
        <div class=""progress-fill"" style=""width:60%""></div>
      </div>
    </div>","1","page2","","","","","","","","","","","","","","","","","","","","","","","","","","","","","","","","","","","","","","","","","","","","","","","","","","","","","","","","","","","","","","","","","","","","","","","","","","","","","","","","",""
"html-button-response","40","257778","0.0-40.0","P1779169273798_KMZ9I2","15597","
      <div style=""display:flex;height:calc(100vh - 130px);min-height:400px;"">

        <!-- ── Left 50 %: stimulus image ── -->
        <div style=""flex:0 0 50%;display:flex;align-items:center;justify-content:center;padding:28px 16px 28px 28px;"">
          <img src=""final_stimfile/greenisland_02_brynjudalur.jpg""
               style=""max-width:100%;max-height:100%;object-fit:contain;border-radius:6px;""
               alt=""刺激圖片"">
        </div>

        <!-- ── Right 50 %: top (avatar) + bottom (chat) ── -->
        <div style=""flex:1;display:flex;flex-direction:column;padding:16px 28px 16px 16px;min-width:0;"">

          <!-- Top 40 %: robot avatar, centred -->
          <div style=""flex:0 0 40%;display:flex;flex-direction:column;align-items:center;justify-content:center;gap:10px;"">
            <img src=""stimulus/level1.png""
                 style=""width:120px;height:120px;object-fit:contain;border-radius:50%;""
                 alt="""">
            <span style=""font-size:14px;color:#555;"">機器人 A</span>
          </div>

          <!-- Bottom 60 %: chat messages -->
          <div style=""flex:1;overflow-y:auto;padding-top:6px;"">
            <div class=""chat-messages"" id=""chat-msg-area""></div>
          </div>

        </div>
      </div>
    <div class=""progress-wrap"">
      <div class=""progress-label"">第 1 段&emsp;6 / 10</div>
      <div class=""progress-track"">
        <div class=""progress-fill"" style=""width:60%""></div>
      </div>
    </div>","0","page3","","","","","","","","","","","","","","","","","","","","","","","","","","","","","","","","","","","","","","","","","","","","","","","","","","","","","","","","","","","","","","","","","","","","","","","","","","","","","","","","",""
"html-button-response","41","258484","0.0-41.0","P1779169273798_KMZ9I2","705","
        <div style=""text-align:center;padding-bottom:60px;"">
          <img src=""final_stimfile/greenisland_02_brynjudalur.jpg"" class=""stim-trial"" alt=""刺激圖片"">
          <p style=""margin-top:14px;"">
            您上次選擇的是 <strong>紐西蘭</strong>，
            機器人認為這裡是 <strong>冰島</strong>，<br>
            請再次猜測您認為這張照片最可能拍攝的地點
          </p>
        </div>
    <div class=""progress-wrap"">
      <div class=""progress-label"">第 1 段&emsp;6 / 10</div>
      <div class=""progress-track"">
        <div class=""progress-fill"" style=""width:60%""></div>
      </div>
    </div>","2","page4","","","","","","","","","","","","","","","","","","","","","","","","","","","","","","","","","","","","","","","","","","","","","","","","","","","","","","","","","","","","","","","","","","","","","","","","","","","","","","","","",""
"html-button-response","42","259002","0.0-42.0","P1779169273798_KMZ9I2","516","
        <div style=""text-align:center;padding-bottom:60px;"">
          <img src=""final_stimfile/greenisland_02_brynjudalur.jpg"" class=""stim-trial"" alt=""刺激圖片"">
          <p style=""margin-top:14px;"">您剛才選擇的答案是 <strong>加拿大</strong>，請問您對此選項的信心如何？</p>
          <p style=""color:#888;font-size:13px;"">（1 分 = 非常沒信心；5 分 = 非常有信心）</p>
        </div>
    <div class=""progress-wrap"">
      <div class=""progress-label"">第 1 段&emsp;6 / 10</div>
      <div class=""progress-track"">
        <div class=""progress-fill"" style=""width:60%""></div>
      </div>
    </div>","3","trial","","","","","level1","0","0","6","6","greenisland_02_brynjudalur","冰島","紐西蘭","false","2","加拿大","false","4","1076","516","","","","","","","","","","","","","","","","","","","","","","","","","","","","","","","","","","","","","","","","","","","","","","","","","","","","","","","","","","","","","",""
"html-button-response","43","259490","0.0-43.0","P1779169273798_KMZ9I2","487","
      <div style=""text-align:center;padding-bottom:60px;"">
        <img src=""final_stimfile/columnbia_santuariade_neustra_sanctuary.jpg"" class=""stim-trial"" alt=""刺激圖片"">
        <p style=""margin-top:14px;"">請猜測您認為這張照片最可能拍攝的地點</p>
      </div>
    <div class=""progress-wrap"">
      <div class=""progress-label"">第 1 段&emsp;7 / 10</div>
      <div class=""progress-track"">
        <div class=""progress-fill"" style=""width:70%""></div>
      </div>
    </div>","2","page1","","","","","","","","","","","","","","","","","","","","","","","","","","","","","","","","","","","","","","","","","","","","","","","","","","","","","","","","","","","","","","","","","","","","","","","","","","","","","","","","",""
"html-button-response","44","259953","0.0-44.0","P1779169273798_KMZ9I2","461","
        <div style=""text-align:center;padding-bottom:60px;"">
          <img src=""final_stimfile/columnbia_santuariade_neustra_sanctuary.jpg"" class=""stim-trial"" alt=""刺激圖片"">
          <p style=""margin-top:14px;"">您剛才選擇的答案是 <strong>葡萄牙</strong>，請問您對此選項的信心如何？</p>
          <p style=""color:#888;font-size:13px;"">（1 分 = 非常沒信心；5 分 = 非常有信心）</p>
        </div>
    <div class=""progress-wrap"">
      <div class=""progress-label"">第 1 段&emsp;7 / 10</div>
      <div class=""progress-track"">
        <div class=""progress-fill"" style=""width:70%""></div>
      </div>
    </div>","3","page2","","","","","","","","","","","","","","","","","","","","","","","","","","","","","","","","","","","","","","","","","","","","","","","","","","","","","","","","","","","","","","","","","","","","","","","","","","","","","","","","",""
"html-button-response","45","277955","0.0-45.0","P1779169273798_KMZ9I2","18001","
      <div style=""display:flex;height:calc(100vh - 130px);min-height:400px;"">

        <!-- ── Left 50 %: stimulus image ── -->
        <div style=""flex:0 0 50%;display:flex;align-items:center;justify-content:center;padding:28px 16px 28px 28px;"">
          <img src=""final_stimfile/columnbia_santuariade_neustra_sanctuary.jpg""
               style=""max-width:100%;max-height:100%;object-fit:contain;border-radius:6px;""
               alt=""刺激圖片"">
        </div>

        <!-- ── Right 50 %: top (avatar) + bottom (chat) ── -->
        <div style=""flex:1;display:flex;flex-direction:column;padding:16px 28px 16px 16px;min-width:0;"">

          <!-- Top 40 %: robot avatar, centred -->
          <div style=""flex:0 0 40%;display:flex;flex-direction:column;align-items:center;justify-content:center;gap:10px;"">
            <img src=""stimulus/level1.png""
                 style=""width:120px;height:120px;object-fit:contain;border-radius:50%;""
                 alt="""">
            <span style=""font-size:14px;color:#555;"">機器人 A</span>
          </div>

          <!-- Bottom 60 %: chat messages -->
          <div style=""flex:1;overflow-y:auto;padding-top:6px;"">
            <div class=""chat-messages"" id=""chat-msg-area""></div>
          </div>

        </div>
      </div>
    <div class=""progress-wrap"">
      <div class=""progress-label"">第 1 段&emsp;7 / 10</div>
      <div class=""progress-track"">
        <div class=""progress-fill"" style=""width:70%""></div>
      </div>
    </div>","0","page3","","","","","","","","","","","","","","","","","","","","","","","","","","","","","","","","","","","","","","","","","","","","","","","","","","","","","","","","","","","","","","","","","","","","","","","","","","","","","","","","",""
"html-button-response","46","278827","0.0-46.0","P1779169273798_KMZ9I2","870","
        <div style=""text-align:center;padding-bottom:60px;"">
          <img src=""final_stimfile/columnbia_santuariade_neustra_sanctuary.jpg"" class=""stim-trial"" alt=""刺激圖片"">
          <p style=""margin-top:14px;"">
            您上次選擇的是 <strong>葡萄牙</strong>，
            機器人認為這裡是 <strong>哥倫比亞</strong>，<br>
            請再次猜測您認為這張照片最可能拍攝的地點
          </p>
        </div>
    <div class=""progress-wrap"">
      <div class=""progress-label"">第 1 段&emsp;7 / 10</div>
      <div class=""progress-track"">
        <div class=""progress-fill"" style=""width:70%""></div>
      </div>
    </div>","1","page4","","","","","","","","","","","","","","","","","","","","","","","","","","","","","","","","","","","","","","","","","","","","","","","","","","","","","","","","","","","","","","","","","","","","","","","","","","","","","","","","",""
"html-button-response","47","279394","0.0-47.0","P1779169273798_KMZ9I2","566","
        <div style=""text-align:center;padding-bottom:60px;"">
          <img src=""final_stimfile/columnbia_santuariade_neustra_sanctuary.jpg"" class=""stim-trial"" alt=""刺激圖片"">
          <p style=""margin-top:14px;"">您剛才選擇的答案是 <strong>菲律賓</strong>，請問您對此選項的信心如何？</p>
          <p style=""color:#888;font-size:13px;"">（1 分 = 非常沒信心；5 分 = 非常有信心）</p>
        </div>
    <div class=""progress-wrap"">
      <div class=""progress-label"">第 1 段&emsp;7 / 10</div>
      <div class=""progress-track"">
        <div class=""progress-fill"" style=""width:70%""></div>
      </div>
    </div>","1","trial","","","","","level1","0","0","7","7","columnbia_santuariade_neustra_sanctuary","哥倫比亞","葡萄牙","false","4","菲律賓","false","2","487","566","","","","","","","","","","","","","","","","","","","","","","","","","","","","","","","","","","","","","","","","","","","","","","","","","","","","","","","","","","","","","",""
"html-button-response","48","279908","0.0-48.0","P1779169273798_KMZ9I2","513","
      <div style=""text-align:center;padding-bottom:60px;"">
        <img src=""final_stimfile/us_yellowstone.jpg"" class=""stim-trial"" alt=""刺激圖片"">
        <p style=""margin-top:14px;"">請猜測您認為這張照片最可能拍攝的地點</p>
      </div>
    <div class=""progress-wrap"">
      <div class=""progress-label"">第 1 段&emsp;8 / 10</div>
      <div class=""progress-track"">
        <div class=""progress-fill"" style=""width:80%""></div>
      </div>
    </div>","1","page1","","","","","","","","","","","","","","","","","","","","","","","","","","","","","","","","","","","","","","","","","","","","","","","","","","","","","","","","","","","","","","","","","","","","","","","","","","","","","","","","",""
"html-button-response","49","280476","0.0-49.0","P1779169273798_KMZ9I2","566","
        <div style=""text-align:center;padding-bottom:60px;"">
          <img src=""final_stimfile/us_yellowstone.jpg"" class=""stim-trial"" alt=""刺激圖片"">
          <p style=""margin-top:14px;"">您剛才選擇的答案是 <strong>冰島</strong>，請問您對此選項的信心如何？</p>
          <p style=""color:#888;font-size:13px;"">（1 分 = 非常沒信心；5 分 = 非常有信心）</p>
        </div>
    <div class=""progress-wrap"">
      <div class=""progress-label"">第 1 段&emsp;8 / 10</div>
      <div class=""progress-track"">
        <div class=""progress-fill"" style=""width:80%""></div>
      </div>
    </div>","1","page2","","","","","","","","","","","","","","","","","","","","","","","","","","","","","","","","","","","","","","","","","","","","","","","","","","","","","","","","","","","","","","","","","","","","","","","","","","","","","","","","",""
"html-button-response","50","306729","0.0-50.0","P1779169273798_KMZ9I2","26251","
      <div style=""display:flex;height:calc(100vh - 130px);min-height:400px;"">

        <!-- ── Left 50 %: stimulus image ── -->
        <div style=""flex:0 0 50%;display:flex;align-items:center;justify-content:center;padding:28px 16px 28px 28px;"">
          <img src=""final_stimfile/us_yellowstone.jpg""
               style=""max-width:100%;max-height:100%;object-fit:contain;border-radius:6px;""
               alt=""刺激圖片"">
        </div>

        <!-- ── Right 50 %: top (avatar) + bottom (chat) ── -->
        <div style=""flex:1;display:flex;flex-direction:column;padding:16px 28px 16px 16px;min-width:0;"">

          <!-- Top 40 %: robot avatar, centred -->
          <div style=""flex:0 0 40%;display:flex;flex-direction:column;align-items:center;justify-content:center;gap:10px;"">
            <img src=""stimulus/level1.png""
                 style=""width:120px;height:120px;object-fit:contain;border-radius:50%;""
                 alt="""">
            <span style=""font-size:14px;color:#555;"">機器人 A</span>
          </div>

          <!-- Bottom 60 %: chat messages -->
          <div style=""flex:1;overflow-y:auto;padding-top:6px;"">
            <div class=""chat-messages"" id=""chat-msg-area""></div>
          </div>

        </div>
      </div>
    <div class=""progress-wrap"">
      <div class=""progress-label"">第 1 段&emsp;8 / 10</div>
      <div class=""progress-track"">
        <div class=""progress-fill"" style=""width:80%""></div>
      </div>
    </div>","0","page3","","","","","","","","","","","","","","","","","","","","","","","","","","","","","","","","","","","","","","","","","","","","","","","","","","","","","","","","","","","","","","","","","","","","","","","","","","","","","","","","",""
"html-button-response","51","307531","0.0-51.0","P1779169273798_KMZ9I2","800","
        <div style=""text-align:center;padding-bottom:60px;"">
          <img src=""final_stimfile/us_yellowstone.jpg"" class=""stim-trial"" alt=""刺激圖片"">
          <p style=""margin-top:14px;"">
            您上次選擇的是 <strong>冰島</strong>，
            機器人認為這裡是 <strong>美國</strong>，<br>
            請再次猜測您認為這張照片最可能拍攝的地點
          </p>
        </div>
    <div class=""progress-wrap"">
      <div class=""progress-label"">第 1 段&emsp;8 / 10</div>
      <div class=""progress-track"">
        <div class=""progress-fill"" style=""width:80%""></div>
      </div>
    </div>","2","page4","","","","","","","","","","","","","","","","","","","","","","","","","","","","","","","","","","","","","","","","","","","","","","","","","","","","","","","","","","","","","","","","","","","","","","","","","","","","","","","","",""
"html-button-response","52","307914","0.0-52.0","P1779169273798_KMZ9I2","382","
        <div style=""text-align:center;padding-bottom:60px;"">
          <img src=""final_stimfile/us_yellowstone.jpg"" class=""stim-trial"" alt=""刺激圖片"">
          <p style=""margin-top:14px;"">您剛才選擇的答案是 <strong>紐西蘭</strong>，請問您對此選項的信心如何？</p>
          <p style=""color:#888;font-size:13px;"">（1 分 = 非常沒信心；5 分 = 非常有信心）</p>
        </div>
    <div class=""progress-wrap"">
      <div class=""progress-label"">第 1 段&emsp;8 / 10</div>
      <div class=""progress-track"">
        <div class=""progress-fill"" style=""width:80%""></div>
      </div>
    </div>","2","trial","","","","","level1","0","0","8","8","us_yellowstone","美國","冰島","false","2","紐西蘭","false","3","513","382","","","","","","","","","","","","","","","","","","","","","","","","","","","","","","","","","","","","","","","","","","","","","","","","","","","","","","","","","","","","","",""
"html-button-response","53","308432","0.0-53.0","P1779169273798_KMZ9I2","517","
      <div style=""text-align:center;padding-bottom:60px;"">
        <img src=""final_stimfile/bolivia_tiwanaku.jpg"" class=""stim-trial"" alt=""刺激圖片"">
        <p style=""margin-top:14px;"">請猜測您認為這張照片最可能拍攝的地點</p>
      </div>
    <div class=""progress-wrap"">
      <div class=""progress-label"">第 1 段&emsp;9 / 10</div>
      <div class=""progress-track"">
        <div class=""progress-fill"" style=""width:90%""></div>
      </div>
    </div>","1","page1","","","","","","","","","","","","","","","","","","","","","","","","","","","","","","","","","","","","","","","","","","","","","","","","","","","","","","","","","","","","","","","","","","","","","","","","","","","","","","","","",""
"html-button-response","54","308873","0.0-54.0","P1779169273798_KMZ9I2","440","
        <div style=""text-align:center;padding-bottom:60px;"">
          <img src=""final_stimfile/bolivia_tiwanaku.jpg"" class=""stim-trial"" alt=""刺激圖片"">
          <p style=""margin-top:14px;"">您剛才選擇的答案是 <strong>柬埔寨</strong>，請問您對此選項的信心如何？</p>
          <p style=""color:#888;font-size:13px;"">（1 分 = 非常沒信心；5 分 = 非常有信心）</p>
        </div>
    <div class=""progress-wrap"">
      <div class=""progress-label"">第 1 段&emsp;9 / 10</div>
      <div class=""progress-track"">
        <div class=""progress-fill"" style=""width:90%""></div>
      </div>
    </div>","2","page2","","","","","","","","","","","","","","","","","","","","","","","","","","","","","","","","","","","","","","","","","","","","","","","","","","","","","","","","","","","","","","","","","","","","","","","","","","","","","","","","",""
"html-button-response","55","322191","0.0-55.0","P1779169273798_KMZ9I2","13317","
      <div style=""display:flex;height:calc(100vh - 130px);min-height:400px;"">

        <!-- ── Left 50 %: stimulus image ── -->
        <div style=""flex:0 0 50%;display:flex;align-items:center;justify-content:center;padding:28px 16px 28px 28px;"">
          <img src=""final_stimfile/bolivia_tiwanaku.jpg""
               style=""max-width:100%;max-height:100%;object-fit:contain;border-radius:6px;""
               alt=""刺激圖片"">
        </div>

        <!-- ── Right 50 %: top (avatar) + bottom (chat) ── -->
        <div style=""flex:1;display:flex;flex-direction:column;padding:16px 28px 16px 16px;min-width:0;"">

          <!-- Top 40 %: robot avatar, centred -->
          <div style=""flex:0 0 40%;display:flex;flex-direction:column;align-items:center;justify-content:center;gap:10px;"">
            <img src=""stimulus/level1.png""
                 style=""width:120px;height:120px;object-fit:contain;border-radius:50%;""
                 alt="""">
            <span style=""font-size:14px;color:#555;"">機器人 A</span>
          </div>

          <!-- Bottom 60 %: chat messages -->
          <div style=""flex:1;overflow-y:auto;padding-top:6px;"">
            <div class=""chat-messages"" id=""chat-msg-area""></div>
          </div>

        </div>
      </div>
    <div class=""progress-wrap"">
      <div class=""progress-label"">第 1 段&emsp;9 / 10</div>
      <div class=""progress-track"">
        <div class=""progress-fill"" style=""width:90%""></div>
      </div>
    </div>","0","page3","","","","","","","","","","","","","","","","","","","","","","","","","","","","","","","","","","","","","","","","","","","","","","","","","","","","","","","","","","","","","","","","","","","","","","","","","","","","","","","","",""
"html-button-response","56","323025","0.0-56.0","P1779169273798_KMZ9I2","832","
        <div style=""text-align:center;padding-bottom:60px;"">
          <img src=""final_stimfile/bolivia_tiwanaku.jpg"" class=""stim-trial"" alt=""刺激圖片"">
          <p style=""margin-top:14px;"">
            您上次選擇的是 <strong>柬埔寨</strong>，
            機器人認為這裡是 <strong>玻利維亞</strong>，<br>
            請再次猜測您認為這張照片最可能拍攝的地點
          </p>
        </div>
    <div class=""progress-wrap"">
      <div class=""progress-label"">第 1 段&emsp;9 / 10</div>
      <div class=""progress-track"">
        <div class=""progress-fill"" style=""width:90%""></div>
      </div>
    </div>","1","page4","","","","","","","","","","","","","","","","","","","","","","","","","","","","","","","","","","","","","","","","","","","","","","","","","","","","","","","","","","","","","","","","","","","","","","","","","","","","","","","","",""
"html-button-response","57","323433","0.0-57.0","P1779169273798_KMZ9I2","407","
        <div style=""text-align:center;padding-bottom:60px;"">
          <img src=""final_stimfile/bolivia_tiwanaku.jpg"" class=""stim-trial"" alt=""刺激圖片"">
          <p style=""margin-top:14px;"">您剛才選擇的答案是 <strong>柬埔寨</strong>，請問您對此選項的信心如何？</p>
          <p style=""color:#888;font-size:13px;"">（1 分 = 非常沒信心；5 分 = 非常有信心）</p>
        </div>
    <div class=""progress-wrap"">
      <div class=""progress-label"">第 1 段&emsp;9 / 10</div>
      <div class=""progress-track"">
        <div class=""progress-fill"" style=""width:90%""></div>
      </div>
    </div>","2","trial","","","","","level1","0","0","9","9","bolivia_tiwanaku","玻利維亞","柬埔寨","false","3","柬埔寨","false","3","517","407","","","","","","","","","","","","","","","","","","","","","","","","","","","","","","","","","","","","","","","","","","","","","","","","","","","","","","","","","","","","","",""
"html-button-response","58","323939","0.0-58.0","P1779169273798_KMZ9I2","505","
      <div style=""text-align:center;padding-bottom:60px;"">
        <img src=""final_stimfile/jordan_petra.jpg"" class=""stim-trial"" alt=""刺激圖片"">
        <p style=""margin-top:14px;"">請猜測您認為這張照片最可能拍攝的地點</p>
      </div>
    <div class=""progress-wrap"">
      <div class=""progress-label"">第 1 段&emsp;10 / 10</div>
      <div class=""progress-track"">
        <div class=""progress-fill"" style=""width:100%""></div>
      </div>
    </div>","1","page1","","","","","","","","","","","","","","","","","","","","","","","","","","","","","","","","","","","","","","","","","","","","","","","","","","","","","","","","","","","","","","","","","","","","","","","","","","","","","","","","",""
"html-button-response","59","325505","0.0-59.0","P1779169273798_KMZ9I2","1565","
        <div style=""text-align:center;padding-bottom:60px;"">
          <img src=""final_stimfile/jordan_petra.jpg"" class=""stim-trial"" alt=""刺激圖片"">
          <p style=""margin-top:14px;"">您剛才選擇的答案是 <strong>埃及</strong>，請問您對此選項的信心如何？</p>
          <p style=""color:#888;font-size:13px;"">（1 分 = 非常沒信心；5 分 = 非常有信心）</p>
        </div>
    <div class=""progress-wrap"">
      <div class=""progress-label"">第 1 段&emsp;10 / 10</div>
      <div class=""progress-track"">
        <div class=""progress-fill"" style=""width:100%""></div>
      </div>
    </div>","0","page2","","","","","","","","","","","","","","","","","","","","","","","","","","","","","","","","","","","","","","","","","","","","","","","","","","","","","","","","","","","","","","","","","","","","","","","","","","","","","","","","",""
"html-button-response","60","510921","0.0-60.0","P1779169273798_KMZ9I2","185415","
      <div style=""display:flex;height:calc(100vh - 130px);min-height:400px;"">

        <!-- ── Left 50 %: stimulus image ── -->
        <div style=""flex:0 0 50%;display:flex;align-items:center;justify-content:center;padding:28px 16px 28px 28px;"">
          <img src=""final_stimfile/jordan_petra.jpg""
               style=""max-width:100%;max-height:100%;object-fit:contain;border-radius:6px;""
               alt=""刺激圖片"">
        </div>

        <!-- ── Right 50 %: top (avatar) + bottom (chat) ── -->
        <div style=""flex:1;display:flex;flex-direction:column;padding:16px 28px 16px 16px;min-width:0;"">

          <!-- Top 40 %: robot avatar, centred -->
          <div style=""flex:0 0 40%;display:flex;flex-direction:column;align-items:center;justify-content:center;gap:10px;"">
            <img src=""stimulus/level1.png""
                 style=""width:120px;height:120px;object-fit:contain;border-radius:50%;""
                 alt="""">
            <span style=""font-size:14px;color:#555;"">機器人 A</span>
          </div>

          <!-- Bottom 60 %: chat messages -->
          <div style=""flex:1;overflow-y:auto;padding-top:6px;"">
            <div class=""chat-messages"" id=""chat-msg-area""></div>
          </div>

        </div>
      </div>
    <div class=""progress-wrap"">
      <div class=""progress-label"">第 1 段&emsp;10 / 10</div>
      <div class=""progress-track"">
        <div class=""progress-fill"" style=""width:100%""></div>
      </div>
    </div>","0","page3","","","","","","","","","","","","","","","","","","","","","","","","","","","","","","","","","","","","","","","","","","","","","","","","","","","","","","","","","","","","","","","","","","","","","","","","","","","","","","","","",""
"html-button-response","61","511632","0.0-61.0","P1779169273798_KMZ9I2","710","
        <div style=""text-align:center;padding-bottom:60px;"">
          <img src=""final_stimfile/jordan_petra.jpg"" class=""stim-trial"" alt=""刺激圖片"">
          <p style=""margin-top:14px;"">
            您上次選擇的是 <strong>埃及</strong>，
            機器人認為這裡是 <strong>約旦</strong>，<br>
            請再次猜測您認為這張照片最可能拍攝的地點
          </p>
        </div>
    <div class=""progress-wrap"">
      <div class=""progress-label"">第 1 段&emsp;10 / 10</div>
      <div class=""progress-track"">
        <div class=""progress-fill"" style=""width:100%""></div>
      </div>
    </div>","2","page4","","","","","","","","","","","","","","","","","","","","","","","","","","","","","","","","","","","","","","","","","","","","","","","","","","","","","","","","","","","","","","","","","","","","","","","","","","","","","","","","",""
"html-button-response","62","512216","0.0-62.0","P1779169273798_KMZ9I2","582","
        <div style=""text-align:center;padding-bottom:60px;"">
          <img src=""final_stimfile/jordan_petra.jpg"" class=""stim-trial"" alt=""刺激圖片"">
          <p style=""margin-top:14px;"">您剛才選擇的答案是 <strong>希臘</strong>，請問您對此選項的信心如何？</p>
          <p style=""color:#888;font-size:13px;"">（1 分 = 非常沒信心；5 分 = 非常有信心）</p>
        </div>
    <div class=""progress-wrap"">
      <div class=""progress-label"">第 1 段&emsp;10 / 10</div>
      <div class=""progress-track"">
        <div class=""progress-fill"" style=""width:100%""></div>
      </div>
    </div>","2","trial","","","","","level1","0","0","10","10","jordan_petra","約旦","埃及","false","1","希臘","false","3","505","582","","","","","","","","","","","","","","","","","","","","","","","","","","","","","","","","","","","","","","","","","","","","","","","","","","","","","","","","","","","","","",""
"html-button-response","63","518969","0.0-63.0","P1779169273798_KMZ9I2","6752","
    <div class=""scale-wrap"">
      <div style=""text-align:center;margin-bottom:20px;"">
        <img src=""stimulus/level1.png""
             style=""width:80px;height:80px;object-fit:contain;border-radius:50%;""
             alt="""">
        <p style=""margin-top:10px;font-size:15px;"">以下請根據您和這位機器人互動的整體印象來回答</p>
      </div>

      
    <div class=""scale-row"">
      <span class=""scale-lbl left"">虛假的</span>
      <div class=""scale-radios"">
    <label>
      <input type=""radio"" name=""godspeed_1"" value=""1"">
      <span>1</span>
    </label>
    <label>
      <input type=""radio"" name=""godspeed_1"" value=""2"">
      <span>2</span>
    </label>
    <label>
      <input type=""radio"" name=""godspeed_1"" value=""3"">
      <span>3</span>
    </label>
    <label>
      <input type=""radio"" name=""godspeed_1"" value=""4"">
      <span>4</span>
    </label>
    <label>
      <input type=""radio"" name=""godspeed_1"" value=""5"">
      <span>5</span>
    </label></div>
      <span class=""scale-lbl right"">自然的</span>
    </div>
    <div class=""scale-row"">
      <span class=""scale-lbl left"">似機械的</span>
      <div class=""scale-radios"">
    <label>
      <input type=""radio"" name=""godspeed_2"" value=""1"">
      <span>1</span>
    </label>
    <label>
      <input type=""radio"" name=""godspeed_2"" value=""2"">
      <span>2</span>
    </label>
    <label>
      <input type=""radio"" name=""godspeed_2"" value=""3"">
      <span>3</span>
    </label>
    <label>
      <input type=""radio"" name=""godspeed_2"" value=""4"">
      <span>4</span>
    </label>
    <label>
      <input type=""radio"" name=""godspeed_2"" value=""5"">
      <span>5</span>
    </label></div>
      <span class=""scale-lbl right"">似人類的</span>
    </div>
    <div class=""scale-row"">
      <span class=""scale-lbl left"">無意識的</span>
      <div class=""scale-radios"">
    <label>
      <input type=""radio"" name=""godspeed_3"" value=""1"">
      <span>1</span>
    </label>
    <label>
      <input type=""radio"" name=""godspeed_3"" value=""2"">
      <span>2</span>
    </label>
    <label>
      <input type=""radio"" name=""godspeed_3"" value=""3"">
      <span>3</span>
    </label>
    <label>
      <input type=""radio"" name=""godspeed_3"" value=""4"">
      <span>4</span>
    </label>
    <label>
      <input type=""radio"" name=""godspeed_3"" value=""5"">
      <span>5</span>
    </label></div>
      <span class=""scale-lbl right"">有意識的</span>
    </div>
    <div class=""scale-row"">
      <span class=""scale-lbl left"">人工的</span>
      <div class=""scale-radios"">
    <label>
      <input type=""radio"" name=""godspeed_4"" value=""1"">
      <span>1</span>
    </label>
    <label>
      <input type=""radio"" name=""godspeed_4"" value=""2"">
      <span>2</span>
    </label>
    <label>
      <input type=""radio"" name=""godspeed_4"" value=""3"">
      <span>3</span>
    </label>
    <label>
      <input type=""radio"" name=""godspeed_4"" value=""4"">
      <span>4</span>
    </label>
    <label>
      <input type=""radio"" name=""godspeed_4"" value=""5"">
      <span>5</span>
    </label></div>
      <span class=""scale-lbl right"">逼真的</span>
    </div>
    <div class=""scale-row"">
      <span class=""scale-lbl left"">不喜歡</span>
      <div class=""scale-radios"">
    <label>
      <input type=""radio"" name=""godspeed_5"" value=""1"">
      <span>1</span>
    </label>
    <label>
      <input type=""radio"" name=""godspeed_5"" value=""2"">
      <span>2</span>
    </label>
    <label>
      <input type=""radio"" name=""godspeed_5"" value=""3"">
      <span>3</span>
    </label>
    <label>
      <input type=""radio"" name=""godspeed_5"" value=""4"">
      <span>4</span>
    </label>
    <label>
      <input type=""radio"" name=""godspeed_5"" value=""5"">
      <span>5</span>
    </label></div>
      <span class=""scale-lbl right"">喜歡</span>
    </div>

      <div style=""border-top:1px solid #ddd;margin:14px 0;""></div>

      
    <div class=""scale-row"">
      <span class=""scale-lbl left"">不友好的</span>
      <div class=""scale-radios"">
    <label>
      <input type=""radio"" name=""godspeed_6"" value=""1"">
      <span>1</span>
    </label>
    <label>
      <input type=""radio"" name=""godspeed_6"" value=""2"">
      <span>2</span>
    </label>
    <label>
      <input type=""radio"" name=""godspeed_6"" value=""3"">
      <span>3</span>
    </label>
    <label>
      <input type=""radio"" name=""godspeed_6"" value=""4"">
      <span>4</span>
    </label>
    <label>
      <input type=""radio"" name=""godspeed_6"" value=""5"">
      <span>5</span>
    </label></div>
      <span class=""scale-lbl right"">友好的</span>
    </div>
    <div class=""scale-row"">
      <span class=""scale-lbl left"">不親切的</span>
      <div class=""scale-radios"">
    <label>
      <input type=""radio"" name=""godspeed_7"" value=""1"">
      <span>1</span>
    </label>
    <label>
      <input type=""radio"" name=""godspeed_7"" value=""2"">
      <span>2</span>
    </label>
    <label>
      <input type=""radio"" name=""godspeed_7"" value=""3"">
      <span>3</span>
    </label>
    <label>
      <input type=""radio"" name=""godspeed_7"" value=""4"">
      <span>4</span>
    </label>
    <label>
      <input type=""radio"" name=""godspeed_7"" value=""5"">
      <span>5</span>
    </label></div>
      <span class=""scale-lbl right"">親切的</span>
    </div>
    <div class=""scale-row"">
      <span class=""scale-lbl left"">不愉快的</span>
      <div class=""scale-radios"">
    <label>
      <input type=""radio"" name=""godspeed_8"" value=""1"">
      <span>1</span>
    </label>
    <label>
      <input type=""radio"" name=""godspeed_8"" value=""2"">
      <span>2</span>
    </label>
    <label>
      <input type=""radio"" name=""godspeed_8"" value=""3"">
      <span>3</span>
    </label>
    <label>
      <input type=""radio"" name=""godspeed_8"" value=""4"">
      <span>4</span>
    </label>
    <label>
      <input type=""radio"" name=""godspeed_8"" value=""5"">
      <span>5</span>
    </label></div>
      <span class=""scale-lbl right"">愉快的</span>
    </div>
    <div class=""scale-row"">
      <span class=""scale-lbl left"">惡劣的</span>
      <div class=""scale-radios"">
    <label>
      <input type=""radio"" name=""godspeed_9"" value=""1"">
      <span>1</span>
    </label>
    <label>
      <input type=""radio"" name=""godspeed_9"" value=""2"">
      <span>2</span>
    </label>
    <label>
      <input type=""radio"" name=""godspeed_9"" value=""3"">
      <span>3</span>
    </label>
    <label>
      <input type=""radio"" name=""godspeed_9"" value=""4"">
      <span>4</span>
    </label>
    <label>
      <input type=""radio"" name=""godspeed_9"" value=""5"">
      <span>5</span>
    </label></div>
      <span class=""scale-lbl right"">良好的</span>
    </div>

      <div style=""border-top:1px solid #ddd;margin:14px 0;""></div>

      <p style=""font-size:14px;color:#555;margin:6px 0 10px;"">
        整體而言，請問您有多相信本輪機器人所提供的答案？
      </p>
      
    <div class=""scale-row"">
      <span class=""scale-lbl left"">非常不相信</span>
      <div class=""scale-radios"">
    <label>
      <input type=""radio"" name=""trust"" value=""1"">
      <span>1</span>
    </label>
    <label>
      <input type=""radio"" name=""trust"" value=""2"">
      <span>2</span>
    </label>
    <label>
      <input type=""radio"" name=""trust"" value=""3"">
      <span>3</span>
    </label>
    <label>
      <input type=""radio"" name=""trust"" value=""4"">
      <span>4</span>
    </label>
    <label>
      <input type=""radio"" name=""trust"" value=""5"">
      <span>5</span>
    </label></div>
      <span class=""scale-lbl right"">非常相信</span>
    </div>

      <div id=""scale-error"">請回答所有題目後再送出</div>
    </div>","0","scale","","","","","level1","","0","","","","","","","","","","","","","4","4","4","4","4","4","4","4","4","4","","","","","","","","","","","","","","","","","","","","","","","","","","","","","","","","","","","","","","","","","","","","","","","","","","","",""
"html-button-response","64","519713","0.0-64.0","P1779169273798_KMZ9I2","742","
      <div class=""page-wrap"">
        <h2>第 2 / 4 段</h2>
        <p style=""font-size:18px;color:#555;"">休息一下，準備好後請按「下一頁」繼續</p>
      </div>","0","rest","","","","","","","","","","","","","","","","","","","","","","","","","","","","","","","","","","","","","","","","","","","","","","","","","","","","","","","","","","","","","","","","","","","","","","","","","","","","","","","","",""
"html-button-response","65","526513","0.0-65.0","P1779169273798_KMZ9I2","6799","
      <div class=""page-wrap"">
        <p style=""font-size:18px;"">接下來您將與以下機器人進行對話</p>
        <img src=""stimulus/level3.png""
             class=""robot-intro-img"" alt=""機器人頭像"">
        <p style=""font-size:14px;color:#888;margin-top:14px;"">請等待五秒後，點按下一頁</p>
      </div>","0","robot_intro","","","","","level3","","","","","","","","","","","","","","","","","","","","","","","","","","","","","","","","","","","","","","","","","","","","","","","","","","","","","","","","","","","","","","","","","","","","","","","","","","","",""
"html-button-response","66","527256","0.0-66.0","P1779169273798_KMZ9I2","742","
      <div style=""text-align:center;padding-bottom:60px;"">
        <img src=""final_stimfile/utzubek_registan_square.jpg"" class=""stim-trial"" alt=""刺激圖片"">
        <p style=""margin-top:14px;"">請猜測您認為這張照片最可能拍攝的地點</p>
      </div>
    <div class=""progress-wrap"">
      <div class=""progress-label"">第 2 段&emsp;1 / 10</div>
      <div class=""progress-track"">
        <div class=""progress-fill"" style=""width:10%""></div>
      </div>
    </div>","2","page1","","","","","","","","","","","","","","","","","","","","","","","","","","","","","","","","","","","","","","","","","","","","","","","","","","","","","","","","","","","","","","","","","","","","","","","","","","","","","","","","",""
"html-button-response","67","528032","0.0-67.0","P1779169273798_KMZ9I2","775","
        <div style=""text-align:center;padding-bottom:60px;"">
          <img src=""final_stimfile/utzubek_registan_square.jpg"" class=""stim-trial"" alt=""刺激圖片"">
          <p style=""margin-top:14px;"">您剛才選擇的答案是 <strong>西班牙</strong>，請問您對此選項的信心如何？</p>
          <p style=""color:#888;font-size:13px;"">（1 分 = 非常沒信心；5 分 = 非常有信心）</p>
        </div>
    <div class=""progress-wrap"">
      <div class=""progress-label"">第 2 段&emsp;1 / 10</div>
      <div class=""progress-track"">
        <div class=""progress-fill"" style=""width:10%""></div>
      </div>
    </div>","3","page2","","","","","","","","","","","","","","","","","","","","","","","","","","","","","","","","","","","","","","","","","","","","","","","","","","","","","","","","","","","","","","","","","","","","","","","","","","","","","","","","",""
"html-button-response","68","536944","0.0-68.0","P1779169273798_KMZ9I2","8911","
      <div style=""display:flex;height:calc(100vh - 130px);min-height:400px;"">

        <!-- ── Left 50 %: stimulus image ── -->
        <div style=""flex:0 0 50%;display:flex;align-items:center;justify-content:center;padding:28px 16px 28px 28px;"">
          <img src=""final_stimfile/utzubek_registan_square.jpg""
               style=""max-width:100%;max-height:100%;object-fit:contain;border-radius:6px;""
               alt=""刺激圖片"">
        </div>

        <!-- ── Right 50 %: top (avatar) + bottom (chat) ── -->
        <div style=""flex:1;display:flex;flex-direction:column;padding:16px 28px 16px 16px;min-width:0;"">

          <!-- Top 40 %: robot avatar, centred -->
          <div style=""flex:0 0 40%;display:flex;flex-direction:column;align-items:center;justify-content:center;gap:10px;"">
            <img src=""stimulus/level3.png""
                 style=""width:120px;height:120px;object-fit:contain;border-radius:50%;""
                 alt="""">
            <span style=""font-size:14px;color:#555;"">機器人 B</span>
          </div>

          <!-- Bottom 60 %: chat messages -->
          <div style=""flex:1;overflow-y:auto;padding-top:6px;"">
            <div class=""chat-messages"" id=""chat-msg-area""></div>
          </div>

        </div>
      </div>
    <div class=""progress-wrap"">
      <div class=""progress-label"">第 2 段&emsp;1 / 10</div>
      <div class=""progress-track"">
        <div class=""progress-fill"" style=""width:10%""></div>
      </div>
    </div>","0","page3","","","","","","","","","","","","","","","","","","","","","","","","","","","","","","","","","","","","","","","","","","","","","","","","","","","","","","","","","","","","","","","","","","","","","","","","","","","","","","","","",""
"html-button-response","69","537472","0.0-69.0","P1779169273798_KMZ9I2","527","
        <div style=""text-align:center;padding-bottom:60px;"">
          <img src=""final_stimfile/utzubek_registan_square.jpg"" class=""stim-trial"" alt=""刺激圖片"">
          <p style=""margin-top:14px;"">
            您上次選擇的是 <strong>西班牙</strong>，
            機器人認為這裡是 <strong>烏茲別克</strong>，<br>
            請再次猜測您認為這張照片最可能拍攝的地點
          </p>
        </div>
    <div class=""progress-wrap"">
      <div class=""progress-label"">第 2 段&emsp;1 / 10</div>
      <div class=""progress-track"">
        <div class=""progress-fill"" style=""width:10%""></div>
      </div>
    </div>","1","page4","","","","","","","","","","","","","","","","","","","","","","","","","","","","","","","","","","","","","","","","","","","","","","","","","","","","","","","","","","","","","","","","","","","","","","","","","","","","","","","","",""
"html-button-response","70","537905","0.0-70.0","P1779169273798_KMZ9I2","431","
        <div style=""text-align:center;padding-bottom:60px;"">
          <img src=""final_stimfile/utzubek_registan_square.jpg"" class=""stim-trial"" alt=""刺激圖片"">
          <p style=""margin-top:14px;"">您剛才選擇的答案是 <strong>摩洛哥</strong>，請問您對此選項的信心如何？</p>
          <p style=""color:#888;font-size:13px;"">（1 分 = 非常沒信心；5 分 = 非常有信心）</p>
        </div>
    <div class=""progress-wrap"">
      <div class=""progress-label"">第 2 段&emsp;1 / 10</div>
      <div class=""progress-track"">
        <div class=""progress-fill"" style=""width:10%""></div>
      </div>
    </div>","2","trial","","","","","level3","1","1","1","11","utzubek_registan_square","烏茲別克","西班牙","false","4","摩洛哥","false","3","742","431","","","","","","","","","","","","","","","","","","","","","","","","","","","","","","","","","","","","","","","","","","","","","","","","","","","","","","","","","","","","","",""
"html-button-response","71","538392","0.0-71.0","P1779169273798_KMZ9I2","486","
      <div style=""text-align:center;padding-bottom:60px;"">
        <img src=""final_stimfile/iraq_03_nablus_street_victor_grigas_2011_-1-68.jpg"" class=""stim-trial"" alt=""刺激圖片"">
        <p style=""margin-top:14px;"">請猜測您認為這張照片最可能拍攝的地點</p>
      </div>
    <div class=""progress-wrap"">
      <div class=""progress-label"">第 2 段&emsp;2 / 10</div>
      <div class=""progress-track"">
        <div class=""progress-fill"" style=""width:20%""></div>
      </div>
    </div>","1","page1","","","","","","","","","","","","","","","","","","","","","","","","","","","","","","","","","","","","","","","","","","","","","","","","","","","","","","","","","","","","","","","","","","","","","","","","","","","","","","","","",""
"html-button-response","72","538912","0.0-72.0","P1779169273798_KMZ9I2","519","
        <div style=""text-align:center;padding-bottom:60px;"">
          <img src=""final_stimfile/iraq_03_nablus_street_victor_grigas_2011_-1-68.jpg"" class=""stim-trial"" alt=""刺激圖片"">
          <p style=""margin-top:14px;"">您剛才選擇的答案是 <strong>摩洛哥</strong>，請問您對此選項的信心如何？</p>
          <p style=""color:#888;font-size:13px;"">（1 分 = 非常沒信心；5 分 = 非常有信心）</p>
        </div>
    <div class=""progress-wrap"">
      <div class=""progress-label"">第 2 段&emsp;2 / 10</div>
      <div class=""progress-track"">
        <div class=""progress-fill"" style=""width:20%""></div>
      </div>
    </div>","2","page2","","","","","","","","","","","","","","","","","","","","","","","","","","","","","","","","","","","","","","","","","","","","","","","","","","","","","","","","","","","","","","","","","","","","","","","","","","","","","","","","",""
"html-button-response","73","736441","0.0-73.0","P1779169273798_KMZ9I2","197527","
      <div style=""display:flex;height:calc(100vh - 130px);min-height:400px;"">

        <!-- ── Left 50 %: stimulus image ── -->
        <div style=""flex:0 0 50%;display:flex;align-items:center;justify-content:center;padding:28px 16px 28px 28px;"">
          <img src=""final_stimfile/iraq_03_nablus_street_victor_grigas_2011_-1-68.jpg""
               style=""max-width:100%;max-height:100%;object-fit:contain;border-radius:6px;""
               alt=""刺激圖片"">
        </div>

        <!-- ── Right 50 %: top (avatar) + bottom (chat) ── -->
        <div style=""flex:1;display:flex;flex-direction:column;padding:16px 28px 16px 16px;min-width:0;"">

          <!-- Top 40 %: robot avatar, centred -->
          <div style=""flex:0 0 40%;display:flex;flex-direction:column;align-items:center;justify-content:center;gap:10px;"">
            <img src=""stimulus/level3.png""
                 style=""width:120px;height:120px;object-fit:contain;border-radius:50%;""
                 alt="""">
            <span style=""font-size:14px;color:#555;"">機器人 B</span>
          </div>

          <!-- Bottom 60 %: chat messages -->
          <div style=""flex:1;overflow-y:auto;padding-top:6px;"">
            <div class=""chat-messages"" id=""chat-msg-area""></div>
          </div>

        </div>
      </div>
    <div class=""progress-wrap"">
      <div class=""progress-label"">第 2 段&emsp;2 / 10</div>
      <div class=""progress-track"">
        <div class=""progress-fill"" style=""width:20%""></div>
      </div>
    </div>","0","page3","","","","","","","","","","","","","","","","","","","","","","","","","","","","","","","","","","","","","","","","","","","","","","","","","","","","","","","","","","","","","","","","","","","","","","","","","","","","","","","","",""
"html-button-response","74","737072","0.0-74.0","P1779169273798_KMZ9I2","630","
        <div style=""text-align:center;padding-bottom:60px;"">
          <img src=""final_stimfile/iraq_03_nablus_street_victor_grigas_2011_-1-68.jpg"" class=""stim-trial"" alt=""刺激圖片"">
          <p style=""margin-top:14px;"">
            您上次選擇的是 <strong>摩洛哥</strong>，
            機器人認為這裡是 <strong>伊拉克</strong>，<br>
            請再次猜測您認為這張照片最可能拍攝的地點
          </p>
        </div>
    <div class=""progress-wrap"">
      <div class=""progress-label"">第 2 段&emsp;2 / 10</div>
      <div class=""progress-track"">
        <div class=""progress-fill"" style=""width:20%""></div>
      </div>
    </div>","1","page4","","","","","","","","","","","","","","","","","","","","","","","","","","","","","","","","","","","","","","","","","","","","","","","","","","","","","","","","","","","","","","","","","","","","","","","","","","","","","","","","",""
"html-button-response","75","737353","0.0-75.0","P1779169273798_KMZ9I2","280","
        <div style=""text-align:center;padding-bottom:60px;"">
          <img src=""final_stimfile/iraq_03_nablus_street_victor_grigas_2011_-1-68.jpg"" class=""stim-trial"" alt=""刺激圖片"">
          <p style=""margin-top:14px;"">您剛才選擇的答案是 <strong>摩洛哥</strong>，請問您對此選項的信心如何？</p>
          <p style=""color:#888;font-size:13px;"">（1 分 = 非常沒信心；5 分 = 非常有信心）</p>
        </div>
    <div class=""progress-wrap"">
      <div class=""progress-label"">第 2 段&emsp;2 / 10</div>
      <div class=""progress-track"">
        <div class=""progress-fill"" style=""width:20%""></div>
      </div>
    </div>","2","trial","","","","","level3","1","1","2","12","iraq_03_nablus_street_victor_grigas_2011_-1-68","伊拉克","摩洛哥","false","3","摩洛哥","false","3","486","280","","","","","","","","","","","","","","","","","","","","","","","","","","","","","","","","","","","","","","","","","","","","","","","","","","","","","","","","","","","","","",""
"html-button-response","76","738095","0.0-76.0","P1779169273798_KMZ9I2","741","
      <div style=""text-align:center;padding-bottom:60px;"">
        <img src=""final_stimfile/turkey_blue_mosque.jpg"" class=""stim-trial"" alt=""刺激圖片"">
        <p style=""margin-top:14px;"">請猜測您認為這張照片最可能拍攝的地點</p>
      </div>
    <div class=""progress-wrap"">
      <div class=""progress-label"">第 2 段&emsp;3 / 10</div>
      <div class=""progress-track"">
        <div class=""progress-fill"" style=""width:30%""></div>
      </div>
    </div>","1","page1","","","","","","","","","","","","","","","","","","","","","","","","","","","","","","","","","","","","","","","","","","","","","","","","","","","","","","","","","","","","","","","","","","","","","","","","","","","","","","","","",""
"html-button-response","77","738488","0.0-77.0","P1779169273798_KMZ9I2","391","
        <div style=""text-align:center;padding-bottom:60px;"">
          <img src=""final_stimfile/turkey_blue_mosque.jpg"" class=""stim-trial"" alt=""刺激圖片"">
          <p style=""margin-top:14px;"">您剛才選擇的答案是 <strong>摩洛哥</strong>，請問您對此選項的信心如何？</p>
          <p style=""color:#888;font-size:13px;"">（1 分 = 非常沒信心；5 分 = 非常有信心）</p>
        </div>
    <div class=""progress-wrap"">
      <div class=""progress-label"">第 2 段&emsp;3 / 10</div>
      <div class=""progress-track"">
        <div class=""progress-fill"" style=""width:30%""></div>
      </div>
    </div>","2","page2","","","","","","","","","","","","","","","","","","","","","","","","","","","","","","","","","","","","","","","","","","","","","","","","","","","","","","","","","","","","","","","","","","","","","","","","","","","","","","","","",""
"html-button-response","78","749527","0.0-78.0","P1779169273798_KMZ9I2","11039","
      <div style=""display:flex;height:calc(100vh - 130px);min-height:400px;"">

        <!-- ── Left 50 %: stimulus image ── -->
        <div style=""flex:0 0 50%;display:flex;align-items:center;justify-content:center;padding:28px 16px 28px 28px;"">
          <img src=""final_stimfile/turkey_blue_mosque.jpg""
               style=""max-width:100%;max-height:100%;object-fit:contain;border-radius:6px;""
               alt=""刺激圖片"">
        </div>

        <!-- ── Right 50 %: top (avatar) + bottom (chat) ── -->
        <div style=""flex:1;display:flex;flex-direction:column;padding:16px 28px 16px 16px;min-width:0;"">

          <!-- Top 40 %: robot avatar, centred -->
          <div style=""flex:0 0 40%;display:flex;flex-direction:column;align-items:center;justify-content:center;gap:10px;"">
            <img src=""stimulus/level3.png""
                 style=""width:120px;height:120px;object-fit:contain;border-radius:50%;""
                 alt="""">
            <span style=""font-size:14px;color:#555;"">機器人 B</span>
          </div>

          <!-- Bottom 60 %: chat messages -->
          <div style=""flex:1;overflow-y:auto;padding-top:6px;"">
            <div class=""chat-messages"" id=""chat-msg-area""></div>
          </div>

        </div>
      </div>
    <div class=""progress-wrap"">
      <div class=""progress-label"">第 2 段&emsp;3 / 10</div>
      <div class=""progress-track"">
        <div class=""progress-fill"" style=""width:30%""></div>
      </div>
    </div>","0","page3","","","","","","","","","","","","","","","","","","","","","","","","","","","","","","","","","","","","","","","","","","","","","","","","","","","","","","","","","","","","","","","","","","","","","","","","","","","","","","","","",""
"html-button-response","79","750416","0.0-79.0","P1779169273798_KMZ9I2","888","
        <div style=""text-align:center;padding-bottom:60px;"">
          <img src=""final_stimfile/turkey_blue_mosque.jpg"" class=""stim-trial"" alt=""刺激圖片"">
          <p style=""margin-top:14px;"">
            您上次選擇的是 <strong>摩洛哥</strong>，
            機器人認為這裡是 <strong>土耳其</strong>，<br>
            請再次猜測您認為這張照片最可能拍攝的地點
          </p>
        </div>
    <div class=""progress-wrap"">
      <div class=""progress-label"">第 2 段&emsp;3 / 10</div>
      <div class=""progress-track"">
        <div class=""progress-fill"" style=""width:30%""></div>
      </div>
    </div>","1","page4","","","","","","","","","","","","","","","","","","","","","","","","","","","","","","","","","","","","","","","","","","","","","","","","","","","","","","","","","","","","","","","","","","","","","","","","","","","","","","","","",""
"html-button-response","80","751032","0.0-80.0","P1779169273798_KMZ9I2","615","
        <div style=""text-align:center;padding-bottom:60px;"">
          <img src=""final_stimfile/turkey_blue_mosque.jpg"" class=""stim-trial"" alt=""刺激圖片"">
          <p style=""margin-top:14px;"">您剛才選擇的答案是 <strong>摩洛哥</strong>，請問您對此選項的信心如何？</p>
          <p style=""color:#888;font-size:13px;"">（1 分 = 非常沒信心；5 分 = 非常有信心）</p>
        </div>
    <div class=""progress-wrap"">
      <div class=""progress-label"">第 2 段&emsp;3 / 10</div>
      <div class=""progress-track"">
        <div class=""progress-fill"" style=""width:30%""></div>
      </div>
    </div>","2","trial","","","","","level3","1","1","3","13","turkey_blue_mosque","土耳其","摩洛哥","false","3","摩洛哥","false","3","741","615","","","","","","","","","","","","","","","","","","","","","","","","","","","","","","","","","","","","","","","","","","","","","","","","","","","","","","","","","","","","","",""
"html-button-response","81","751570","0.0-81.0","P1779169273798_KMZ9I2","537","
      <div style=""text-align:center;padding-bottom:60px;"">
        <img src=""final_stimfile/qatar_01_souq_waqif_doha_catar_2013-08-05_dd_57.jpg"" class=""stim-trial"" alt=""刺激圖片"">
        <p style=""margin-top:14px;"">請猜測您認為這張照片最可能拍攝的地點</p>
      </div>
    <div class=""progress-wrap"">
      <div class=""progress-label"">第 2 段&emsp;4 / 10</div>
      <div class=""progress-track"">
        <div class=""progress-fill"" style=""width:40%""></div>
      </div>
    </div>","1","page1","","","","","","","","","","","","","","","","","","","","","","","","","","","","","","","","","","","","","","","","","","","","","","","","","","","","","","","","","","","","","","","","","","","","","","","","","","","","","","","","",""
"html-button-response","82","752172","0.0-82.0","P1779169273798_KMZ9I2","601","
        <div style=""text-align:center;padding-bottom:60px;"">
          <img src=""final_stimfile/qatar_01_souq_waqif_doha_catar_2013-08-05_dd_57.jpg"" class=""stim-trial"" alt=""刺激圖片"">
          <p style=""margin-top:14px;"">您剛才選擇的答案是 <strong>摩洛哥</strong>，請問您對此選項的信心如何？</p>
          <p style=""color:#888;font-size:13px;"">（1 分 = 非常沒信心；5 分 = 非常有信心）</p>
        </div>
    <div class=""progress-wrap"">
      <div class=""progress-label"">第 2 段&emsp;4 / 10</div>
      <div class=""progress-track"">
        <div class=""progress-fill"" style=""width:40%""></div>
      </div>
    </div>","2","page2","","","","","","","","","","","","","","","","","","","","","","","","","","","","","","","","","","","","","","","","","","","","","","","","","","","","","","","","","","","","","","","","","","","","","","","","","","","","","","","","",""
"html-button-response","83","770045","0.0-83.0","P1779169273798_KMZ9I2","17871","
      <div style=""display:flex;height:calc(100vh - 130px);min-height:400px;"">

        <!-- ── Left 50 %: stimulus image ── -->
        <div style=""flex:0 0 50%;display:flex;align-items:center;justify-content:center;padding:28px 16px 28px 28px;"">
          <img src=""final_stimfile/qatar_01_souq_waqif_doha_catar_2013-08-05_dd_57.jpg""
               style=""max-width:100%;max-height:100%;object-fit:contain;border-radius:6px;""
               alt=""刺激圖片"">
        </div>

        <!-- ── Right 50 %: top (avatar) + bottom (chat) ── -->
        <div style=""flex:1;display:flex;flex-direction:column;padding:16px 28px 16px 16px;min-width:0;"">

          <!-- Top 40 %: robot avatar, centred -->
          <div style=""flex:0 0 40%;display:flex;flex-direction:column;align-items:center;justify-content:center;gap:10px;"">
            <img src=""stimulus/level3.png""
                 style=""width:120px;height:120px;object-fit:contain;border-radius:50%;""
                 alt="""">
            <span style=""font-size:14px;color:#555;"">機器人 B</span>
          </div>

          <!-- Bottom 60 %: chat messages -->
          <div style=""flex:1;overflow-y:auto;padding-top:6px;"">
            <div class=""chat-messages"" id=""chat-msg-area""></div>
          </div>

        </div>
      </div>
    <div class=""progress-wrap"">
      <div class=""progress-label"">第 2 段&emsp;4 / 10</div>
      <div class=""progress-track"">
        <div class=""progress-fill"" style=""width:40%""></div>
      </div>
    </div>","0","page3","","","","","","","","","","","","","","","","","","","","","","","","","","","","","","","","","","","","","","","","","","","","","","","","","","","","","","","","","","","","","","","","","","","","","","","","","","","","","","","","",""
"html-button-response","84","770928","0.0-84.0","P1779169273798_KMZ9I2","881","
        <div style=""text-align:center;padding-bottom:60px;"">
          <img src=""final_stimfile/qatar_01_souq_waqif_doha_catar_2013-08-05_dd_57.jpg"" class=""stim-trial"" alt=""刺激圖片"">
          <p style=""margin-top:14px;"">
            您上次選擇的是 <strong>摩洛哥</strong>，
            機器人認為這裡是 <strong>卡達</strong>，<br>
            請再次猜測您認為這張照片最可能拍攝的地點
          </p>
        </div>
    <div class=""progress-wrap"">
      <div class=""progress-label"">第 2 段&emsp;4 / 10</div>
      <div class=""progress-track"">
        <div class=""progress-fill"" style=""width:40%""></div>
      </div>
    </div>","1","page4","","","","","","","","","","","","","","","","","","","","","","","","","","","","","","","","","","","","","","","","","","","","","","","","","","","","","","","","","","","","","","","","","","","","","","","","","","","","","","","","",""
"html-button-response","85","771624","0.0-85.0","P1779169273798_KMZ9I2","694","
        <div style=""text-align:center;padding-bottom:60px;"">
          <img src=""final_stimfile/qatar_01_souq_waqif_doha_catar_2013-08-05_dd_57.jpg"" class=""stim-trial"" alt=""刺激圖片"">
          <p style=""margin-top:14px;"">您剛才選擇的答案是 <strong>摩洛哥</strong>，請問您對此選項的信心如何？</p>
          <p style=""color:#888;font-size:13px;"">（1 分 = 非常沒信心；5 分 = 非常有信心）</p>
        </div>
    <div class=""progress-wrap"">
      <div class=""progress-label"">第 2 段&emsp;4 / 10</div>
      <div class=""progress-track"">
        <div class=""progress-fill"" style=""width:40%""></div>
      </div>
    </div>","1","trial","","","","","level3","1","1","4","14","qatar_01_souq_waqif_doha_catar_2013-08-05_dd_57","卡達","摩洛哥","false","3","摩洛哥","false","2","537","694","","","","","","","","","","","","","","","","","","","","","","","","","","","","","","","","","","","","","","","","","","","","","","","","","","","","","","","","","","","","","",""
"html-button-response","86","772417","0.0-86.0","P1779169273798_KMZ9I2","792","
      <div style=""text-align:center;padding-bottom:60px;"">
        <img src=""final_stimfile/india_01_allahabad_fort.jpg"" class=""stim-trial"" alt=""刺激圖片"">
        <p style=""margin-top:14px;"">請猜測您認為這張照片最可能拍攝的地點</p>
      </div>
    <div class=""progress-wrap"">
      <div class=""progress-label"">第 2 段&emsp;5 / 10</div>
      <div class=""progress-track"">
        <div class=""progress-fill"" style=""width:50%""></div>
      </div>
    </div>","1","page1","","","","","","","","","","","","","","","","","","","","","","","","","","","","","","","","","","","","","","","","","","","","","","","","","","","","","","","","","","","","","","","","","","","","","","","","","","","","","","","","",""
"html-button-response","87","772970","0.0-87.0","P1779169273798_KMZ9I2","551","
        <div style=""text-align:center;padding-bottom:60px;"">
          <img src=""final_stimfile/india_01_allahabad_fort.jpg"" class=""stim-trial"" alt=""刺激圖片"">
          <p style=""margin-top:14px;"">您剛才選擇的答案是 <strong>埃及</strong>，請問您對此選項的信心如何？</p>
          <p style=""color:#888;font-size:13px;"">（1 分 = 非常沒信心；5 分 = 非常有信心）</p>
        </div>
    <div class=""progress-wrap"">
      <div class=""progress-label"">第 2 段&emsp;5 / 10</div>
      <div class=""progress-track"">
