"trial_type","trial_index","time_elapsed","internal_node_id","participant_id","rt","stimulus","response","data_type","consented","demo_name","demo_gender","demo_age"
"pavlovia","0","1486","0.0-0.0","P1780646361161_LE9GP7","","","","","","","",""
"html-button-response","1","2840","0.0-1.0","P1780646361161_LE9GP7","1351","
      <div style=""max-width:680px;margin:0 auto;padding:30px 20px;line-height:1.9;font-size:15px;"">
        <h2 style=""margin-bottom:24px;"">歡迎參加本實驗！</h2>
        <p>本實驗旨在了解對地景的判斷，及與機器人共同完成作業的決策歷程。本實驗包含三個部分：<br>
        （一）個人資料填答<br>
        （二）猜測地景拍攝地點的主要實驗<br>
        （三）後測問卷</p>
        <p style=""color:#c0392b;"">注意，本實驗無回上一頁選項，在實驗各階段，皆請務必確認答案再進入下一頁。</p>
        <p>以上資訊若有問題請來信聯絡實驗聯絡人，若確認了解並同意以上資訊，請勾選同意，並按確認鍵開始填答基本資料。</p>
        <label style=""display:flex;align-items:center;justify-content:center;gap:10px;margin-top:20px;font-size:15px;cursor:pointer;"">
          <input type=""checkbox"" id=""consent-check"" style=""width:20px;height:20px;cursor:pointer;"">
          我同意參與本實驗
        </label>
      </div>","0","consent","true","","",""
"html-button-response","2","11980","0.0-2.0","P1780646361161_LE9GP7","9134","
      <div style=""max-width:680px;margin:0 auto;padding:30px 20px;line-height:1.9;font-size:15px;"">
        <h3 style=""font-weight:bold;margin-bottom:24px;"">第一部分：個人資料</h3>
        <div style=""display:flex;align-items:center;gap:14px;margin:14px 0;"">
          <label style=""min-width:140px;font-size:15px;""><strong>您的姓名（選填）：</strong></label>
          <input type=""text"" id=""demo-name"" placeholder=""請輸入""
            style=""width:260px;padding:6px 10px;font-size:15px;border:0;border-bottom:1px solid #999;outline:none;background:transparent;"">
        </div>
        <div style=""display:flex;align-items:center;gap:14px;margin:14px 0;"">
          <label style=""min-width:140px;font-size:15px;""><strong>性別（必填）：</strong></label>
          <div style=""display:flex;gap:20px;"">
            <label style=""cursor:pointer;white-space:nowrap;""><input type=""radio"" name=""demo-gender"" value=""生理女""> 生理女</label>
            <label style=""cursor:pointer;white-space:nowrap;""><input type=""radio"" name=""demo-gender"" value=""生理男""> 生理男</label>
            <label style=""cursor:pointer;white-space:nowrap;""><input type=""radio"" name=""demo-gender"" value=""不願透露""> 不願透露</label>
          </div>
        </div>
        <div style=""display:flex;align-items:center;gap:14px;margin:14px 0;"">
          <label style=""min-width:140px;font-size:15px;""><strong>年齡（必填）：</strong></label>
          <input type=""number"" id=""demo-age"" min=""1"" max=""120"" step=""1"" placeholder=""請輸入""
            style=""width:100px;padding:6px 10px;font-size:15px;border:0;border-bottom:1px solid #999;outline:none;background:transparent;"">
          <span id=""age-error"" style=""color:#c0392b;font-size:13px;margin-left:8px;display:none;"">請輸入正整數</span>
        </div>
      </div>","0","demographics","","劉宬言","生理男","21"
