"trial_type","trial_index","time_elapsed","internal_node_id","participant_id","rt","stimulus","response","data_type","consented","demo_name","demo_gender","demo_age","robot_avatar","condition_index","robot_index","robot_style","trial_number","global_trial_number","stim_file","correct_answer","guess_1","guess_1_correct","guess_1_confidence","guess_2","guess_2_correct","guess_2_confidence","guess_1_rt","guess_2_rt","chatroom_rt","guess_2_confidence_rt","godspeed_1","godspeed_2","godspeed_3","godspeed_4","godspeed_5","godspeed_6","godspeed_7","godspeed_8","godspeed_9","trust","mai_1","mai_2","mai_3","mai_4","mai_5","mai_6","mai_7","mai_8","mai_9","mai_10","mai_11","mai_12","mai_13","mai_14","mai_15","mai_16","mai_17","mai_18","mai_19","mai_20","mai_21","mai_22","mai_23","mai_24","mai_25","mai_26","mai_27","mai_28","mai_29","mai_30","mai_31","mai_32","mai_33","mai_34","mai_35","mai_36","mai_37","mai_38","mai_39","mai_40","mai_41","mai_42","mai_43","mai_44","mai_45","mai_46","mai_47","mai_48","mai_49","mai_50","mai_51","mai_52"
"pavlovia","0","1338","0.0-0.0","P1779363471621_O9RUF9","","","","","","","","","","","","","","","","","","","","","","","","","","","","","","","","","","","","","","","","","","","","","","","","","","","","","","","","","","","","","","","","","","","","","","","","","","","","","","","","","","","","","","","",""
"html-button-response","1","4537","0.0-1.0","P1779363471621_O9RUF9","3196","
      <div style=""max-width:680px;margin:0 auto;padding:30px 20px;line-height:1.9;font-size:15px;"">
        <h2 style=""margin-bottom:24px;"">歡迎參加本實驗！</h2>
        <p>本實驗旨在了解對地景的判斷，及與機器人共同完成作業的決策歷程。本實驗包含三個部分：<br>
        （一）個人資料填答<br>
        （二）猜測地景拍攝地點的主要實驗<br>
        （三）後測問卷</p>
        <p style=""color:#c0392b;"">注意，本實驗無回上一頁選項，在實驗各階段，皆請務必確認答案再進入下一頁。</p>
        <p>以上資訊若有問題請來信聯絡實驗聯絡人，若確認了解並同意以上資訊，請勾選同意，並按確認鍵開始填答基本資料。</p>
        <label style=""display:flex;align-items:center;justify-content:center;gap:10px;margin-top:20px;font-size:15px;cursor:pointer;"">
          <input type=""checkbox"" id=""consent-check"" style=""width:20px;height:20px;cursor:pointer;"">
          我同意參與本實驗
        </label>
      </div>","0","consent","true","","","","","","","","","","","","","","","","","","","","","","","","","","","","","","","","","","","","","","","","","","","","","","","","","","","","","","","","","","","","","","","","","","","","","","","","","","","","","","","","","","",""
"html-button-response","2","45960","0.0-2.0","P1779363471621_O9RUF9","41420","
      <div style=""max-width:680px;margin:0 auto;padding:30px 20px;line-height:1.9;font-size:15px;"">
        <h3 style=""font-weight:bold;margin-bottom:24px;"">第一部分：個人資料</h3>
        <div style=""display:flex;align-items:center;gap:14px;margin:14px 0;"">
          <label style=""min-width:140px;font-size:15px;""><strong>您的姓名（選填）：</strong></label>
          <input type=""text"" id=""demo-name"" placeholder=""請輸入""
            style=""width:260px;padding:6px 10px;font-size:15px;border:0;border-bottom:1px solid #999;outline:none;background:transparent;"">
        </div>
        <div style=""display:flex;align-items:center;gap:14px;margin:14px 0;"">
          <label style=""min-width:140px;font-size:15px;""><strong>性別（必填）：</strong></label>
          <div style=""display:flex;gap:20px;"">
            <label style=""cursor:pointer;white-space:nowrap;""><input type=""radio"" name=""demo-gender"" value=""生理女""> 生理女</label>
            <label style=""cursor:pointer;white-space:nowrap;""><input type=""radio"" name=""demo-gender"" value=""生理男""> 生理男</label>
            <label style=""cursor:pointer;white-space:nowrap;""><input type=""radio"" name=""demo-gender"" value=""不願透露""> 不願透露</label>
          </div>
        </div>
        <div style=""display:flex;align-items:center;gap:14px;margin:14px 0;"">
          <label style=""min-width:140px;font-size:15px;""><strong>年齡（必填）：</strong></label>
          <input type=""number"" id=""demo-age"" min=""1"" max=""120"" step=""1"" placeholder=""請輸入""
            style=""width:100px;padding:6px 10px;font-size:15px;border:0;border-bottom:1px solid #999;outline:none;background:transparent;"">
          <span id=""age-error"" style=""color:#c0392b;font-size:13px;margin-left:8px;display:none;"">請輸入正整數</span>
        </div>
      </div>","0","demographics","","蕾雅","生理女","38","","","","","","","","","","","","","","","","","","","","","","","","","","","","","","","","","","","","","","","","","","","","","","","","","","","","","","","","","","","","","","","","","","","","","","","","","","","","","","","",""
"html-button-response","3","50652","0.0-3.0","P1779363471621_O9RUF9","4690","
      <div style=""max-width:680px;margin:0 auto;padding:30px 20px;line-height:1.9;font-size:15px;"">
        <h3 style=""font-weight:bold;margin-bottom:16px;"">第二部分：正式實驗</h3>
        <p>在本部分的實驗中，您需要觀看一些地景照片，並從四個選項中選擇您認為正確的拍攝地點，之後選擇您對該猜測的信心程度，確定您的選擇後，請按確認進入下一頁。</p>
        <p>了解以上資訊後，請按確認鍵開始練習以上部分的實驗。</p>
      </div>","0","instruction","","","","","","","","","","","","","","","","","","","","","","","","","","","","","","","","","","","","","","","","","","","","","","","","","","","","","","","","","","","","","","","","","","","","","","","","","","","","","","","","","","","",""
"html-button-response","4","62448","0.0-4.0","P1779363471621_O9RUF9","11794","
      <div style=""text-align:center;padding-bottom:60px;"">
        <img src=""final_stimfile/arabia_sheikh_zayed_palace.jpg"" class=""stim-trial"" alt=""練習圖片"">
        <p style=""margin-top:14px;"">請猜測您認為這張照片最可能拍攝的地點</p>
      </div>","0","practice","","","","","","","","","","","","","","","","","","","","","","","","","","","","","","","","","","","","","","","","","","","","","","","","","","","","","","","","","","","","","","","","","","","","","","","","","","","","","","","","","","","",""
"html-button-response","5","65759","0.0-5.0","P1779363471621_O9RUF9","3308","
        <div style=""text-align:center;padding-bottom:60px;"">
          <img src=""final_stimfile/arabia_sheikh_zayed_palace.jpg"" class=""stim-trial"" alt=""練習圖片"">
          <p style=""margin-top:14px;"">您剛才選擇的答案是 <strong>阿拉伯聯合大公國</strong>，請問您對此選項的信心如何？</p>
          <p style=""color:#888;font-size:13px;"">（1 分 = 非常沒信心；5 分 = 非常有信心）</p>
        </div>","2","practice","","","","","","","","","","","","","","","","","","","","","","","","","","","","","","","","","","","","","","","","","","","","","","","","","","","","","","","","","","","","","","","","","","","","","","","","","","","","","","","","","","","",""
"html-button-response","6","73071","0.0-6.0","P1779363471621_O9RUF9","7310","
      <div style=""max-width:680px;margin:0 auto;padding:30px 20px;line-height:1.9;font-size:15px;"">
        <p>每一題在您完成如先前頁面的選擇後，會展示一段機器人關於本題的作答想法。</p>
        <p style=""color:#c0392b;"">注意：本機器人訓練時模擬人類回應行為，因此答案未必完全正確，請務必仔細評估內容及答案之後再決定是否採用機器人答案。</p>
        <p>在觀看完機器人的作答想法後，會請您再次猜測本題答案，並評估您對答案的信心程度。</p>
        <p>了解以上資訊後，請按確認鍵開始練習以上部分的實驗。</p>
      </div>","0","instruction","","","","","","","","","","","","","","","","","","","","","","","","","","","","","","","","","","","","","","","","","","","","","","","","","","","","","","","","","","","","","","","","","","","","","","","","","","","","","","","","","","","",""
"html-button-response","7","86727","0.0-7.0","P1779363471621_O9RUF9","13653","
      <div style=""display:flex;height:calc(100vh - 130px);min-height:400px;"">

        <!-- ── Left 50 %: stimulus image ── -->
        <div style=""flex:0 0 50%;display:flex;align-items:center;justify-content:center;padding:28px 16px 28px 28px;"">
          <img src=""final_stimfile/arabia_sheikh_zayed_palace.jpg""
               style=""max-width:100%;max-height:100%;object-fit:contain;border-radius:6px;""
               alt=""刺激圖片"">
        </div>

        <!-- ── Right 50 %: top (avatar) + bottom (chat) ── -->
        <div style=""flex:1;display:flex;flex-direction:column;padding:16px 28px 16px 16px;min-width:0;"">

          <!-- Top 40 %: robot avatar, centred -->
          <div style=""flex:0 0 40%;display:flex;flex-direction:column;align-items:center;justify-content:center;gap:10px;"">
            <img src=""stimulus/level1.png""
                 style=""width:120px;height:120px;object-fit:contain;border-radius:50%;""
                 alt="""">
            <span style=""font-size:14px;color:#555;"">練習機器人</span>
          </div>

          <!-- Bottom 60 %: chat messages -->
          <div style=""flex:1;overflow-y:auto;padding-top:6px;"">
            <div class=""chat-messages"" id=""chat-msg-area""></div>
          </div>

        </div>
      </div>","0","page3","","","","","","","","","","","","","","","","","","","","","","","","","","","","","","","","","","","","","","","","","","","","","","","","","","","","","","","","","","","","","","","","","","","","","","","","","","","","","","","","","","","",""
"html-button-response","8","91327","0.0-8.0","P1779363471621_O9RUF9","4597","
        <div style=""text-align:center;padding-bottom:60px;"">
          <img src=""final_stimfile/arabia_sheikh_zayed_palace.jpg"" class=""stim-trial"" alt=""練習圖片"">
          <p style=""margin-top:14px;"">
            您上次選擇的是 <strong>阿拉伯聯合大公國</strong>，
            機器人認為這裡是 <strong>阿拉伯聯合大公國</strong>，<br>
            請再次猜測您認為這張照片最可能拍攝的地點
          </p>
        </div>","0","practice","","","","","","","","","","","","","","","","","","","","","","","","","","","","","","","","","","","","","","","","","","","","","","","","","","","","","","","","","","","","","","","","","","","","","","","","","","","","","","","","","","","",""
"html-button-response","9","92439","0.0-9.0","P1779363471621_O9RUF9","1110","
        <div style=""text-align:center;padding-bottom:60px;"">
          <img src=""final_stimfile/arabia_sheikh_zayed_palace.jpg"" class=""stim-trial"" alt=""練習圖片"">
          <p style=""margin-top:14px;"">您剛才選擇的答案是 <strong>阿拉伯聯合大公國</strong>，請問您對此選項的信心如何？</p>
          <p style=""color:#888;font-size:13px;"">（1 分 = 非常沒信心；5 分 = 非常有信心）</p>
        </div>","4","practice","","","","","","","","","","","","","","","","","","","","","","","","","","","","","","","","","","","","","","","","","","","","","","","","","","","","","","","","","","","","","","","","","","","","","","","","","","","","","","","","","","","",""
"html-button-response","10","95064","0.0-10.0","P1779363471621_O9RUF9","2624","
      <div style=""max-width:680px;margin:0 auto;padding:30px 20px;line-height:1.9;font-size:15px;"">
        <p style=""color:#c0392b;"">本實驗共有四輪，每輪有十五張圖。不同輪次之間，會由不同的機器人提供作答想法。</p>
        <p>每一輪於十五張圖片回答完成後，會請您評估一些關於本輪機器人的看法。</p>
        <p>若以上資訊有問題，可來信詢問實驗者，若無其他疑問，請按確認開始正式實驗。</p>
      </div>","0","instruction","","","","","","","","","","","","","","","","","","","","","","","","","","","","","","","","","","","","","","","","","","","","","","","","","","","","","","","","","","","","","","","","","","","","","","","","","","","","","","","","","","","",""
"html-button-response","11","96732","0.0-11.0","P1779363471621_O9RUF9","1667","
      <div class=""page-wrap"">
        <h2>第 1 / 4 段</h2>
        <p style=""font-size:18px;color:#555;"">休息一下，準備好後請按「下一頁」繼續</p>
      </div>","0","rest","","","","","","","","","","","","","","","","","","","","","","","","","","","","","","","","","","","","","","","","","","","","","","","","","","","","","","","","","","","","","","","","","","","","","","","","","","","","","","","","","","","",""
"html-button-response","12","102652","0.0-12.0","P1779363471621_O9RUF9","5919","
      <div class=""page-wrap"">
        <p style=""font-size:18px;"">接下來您將與以下機器人進行對話</p>
        <img src=""stimulus/level3.png""
             class=""robot-intro-img"" alt=""機器人頭像"">
        <p style=""font-size:14px;color:#888;margin-top:14px;"">請等待五秒後，點按下一頁</p>
      </div>","0","robot_intro","","","","","level3","","","","","","","","","","","","","","","","","","","","","","","","","","","","","","","","","","","","","","","","","","","","","","","","","","","","","","","","","","","","","","","","","","","","","","","","","","","","","","",""
"html-button-response","13","135797","0.0-13.0","P1779363471621_O9RUF9","33143","
      <div style=""text-align:center;padding-bottom:60px;"">
        <img src=""final_stimfile/czeck_prague_castle.jpg"" class=""stim-trial"" alt=""刺激圖片"">
        <p style=""margin-top:14px;"">請猜測您認為這張照片最可能拍攝的地點</p>
      </div>
    <div class=""progress-wrap"">
      <div class=""progress-label"">第 1 段&emsp;1 / 10</div>
      <div class=""progress-track"">
        <div class=""progress-fill"" style=""width:10%""></div>
      </div>
    </div>","0","page1","","","","","","","","","","","","","","","","","","","","","","","","","","","","","","","","","","","","","","","","","","","","","","","","","","","","","","","","","","","","","","","","","","","","","","","","","","","","","","","","","","","",""
"html-button-response","14","137258","0.0-14.0","P1779363471621_O9RUF9","1458","
        <div style=""text-align:center;padding-bottom:60px;"">
          <img src=""final_stimfile/czeck_prague_castle.jpg"" class=""stim-trial"" alt=""刺激圖片"">
          <p style=""margin-top:14px;"">您剛才選擇的答案是 <strong>捷克</strong>，請問您對此選項的信心如何？</p>
          <p style=""color:#888;font-size:13px;"">（1 分 = 非常沒信心；5 分 = 非常有信心）</p>
        </div>
    <div class=""progress-wrap"">
      <div class=""progress-label"">第 1 段&emsp;1 / 10</div>
      <div class=""progress-track"">
        <div class=""progress-fill"" style=""width:10%""></div>
      </div>
    </div>","2","page2","","","","","","","","","","","","","","","","","","","","","","","","","","","","","","","","","","","","","","","","","","","","","","","","","","","","","","","","","","","","","","","","","","","","","","","","","","","","","","","","","","","",""
"html-button-response","15","158983","0.0-15.0","P1779363471621_O9RUF9","21723","
      <div style=""display:flex;height:calc(100vh - 130px);min-height:400px;"">

        <!-- ── Left 50 %: stimulus image ── -->
        <div style=""flex:0 0 50%;display:flex;align-items:center;justify-content:center;padding:28px 16px 28px 28px;"">
          <img src=""final_stimfile/czeck_prague_castle.jpg""
               style=""max-width:100%;max-height:100%;object-fit:contain;border-radius:6px;""
               alt=""刺激圖片"">
        </div>

        <!-- ── Right 50 %: top (avatar) + bottom (chat) ── -->
        <div style=""flex:1;display:flex;flex-direction:column;padding:16px 28px 16px 16px;min-width:0;"">

          <!-- Top 40 %: robot avatar, centred -->
          <div style=""flex:0 0 40%;display:flex;flex-direction:column;align-items:center;justify-content:center;gap:10px;"">
            <img src=""stimulus/level3.png""
                 style=""width:120px;height:120px;object-fit:contain;border-radius:50%;""
                 alt="""">
            <span style=""font-size:14px;color:#555;"">機器人 A</span>
          </div>

          <!-- Bottom 60 %: chat messages -->
          <div style=""flex:1;overflow-y:auto;padding-top:6px;"">
            <div class=""chat-messages"" id=""chat-msg-area""></div>
          </div>

        </div>
      </div>
    <div class=""progress-wrap"">
      <div class=""progress-label"">第 1 段&emsp;1 / 10</div>
      <div class=""progress-track"">
        <div class=""progress-fill"" style=""width:10%""></div>
      </div>
    </div>","0","page3","","","","","","","","","","","","","","","","","","","","","","","","","","","","","","","","","","","","","","","","","","","","","","","","","","","","","","","","","","","","","","","","","","","","","","","","","","","","","","","","","","","",""
"html-button-response","16","161786","0.0-16.0","P1779363471621_O9RUF9","2801","
        <div style=""text-align:center;padding-bottom:60px;"">
          <img src=""final_stimfile/czeck_prague_castle.jpg"" class=""stim-trial"" alt=""刺激圖片"">
          <p style=""margin-top:14px;"">
            您上次選擇的是 <strong>捷克</strong>，
            機器人認為這裡是 <strong>捷克</strong>，<br>
            請再次猜測您認為這張照片最可能拍攝的地點
          </p>
        </div>
    <div class=""progress-wrap"">
      <div class=""progress-label"">第 1 段&emsp;1 / 10</div>
      <div class=""progress-track"">
        <div class=""progress-fill"" style=""width:10%""></div>
      </div>
    </div>","0","page4","","","","","","","","","","","","","","","","","","","","","","","","","","","","","","","","","","","","","","","","","","","","","","","","","","","","","","","","","","","","","","","","","","","","","","","","","","","","","","","","","","","",""
"html-button-response","17","168987","0.0-17.0","P1779363471621_O9RUF9","7198","
        <div style=""text-align:center;padding-bottom:60px;"">
          <img src=""final_stimfile/czeck_prague_castle.jpg"" class=""stim-trial"" alt=""刺激圖片"">
          <p style=""margin-top:14px;"">您剛才選擇的答案是 <strong>捷克</strong>，請問您對此選項的信心如何？</p>
          <p style=""color:#888;font-size:13px;"">（1 分 = 非常沒信心；5 分 = 非常有信心）</p>
        </div>
    <div class=""progress-wrap"">
      <div class=""progress-label"">第 1 段&emsp;1 / 10</div>
      <div class=""progress-track"">
        <div class=""progress-fill"" style=""width:10%""></div>
      </div>
    </div>","4","trial","","","","","level3","2","0","2","1","1","czeck_prague_castle","捷克","捷克","true","3","捷克","true","5","33143","2801","21723","7198","","","","","","","","","","","","","","","","","","","","","","","","","","","","","","","","","","","","","","","","","","","","","","","","","","","","","","","","","","","","","",""
"html-button-response","18","185706","0.0-18.0","P1779363471621_O9RUF9","16717","
      <div style=""text-align:center;padding-bottom:60px;"">
        <img src=""final_stimfile/italy_01_san_benigno_canavese-torre_dellabbazia_della_fruttuaria.jpg"" class=""stim-trial"" alt=""刺激圖片"">
        <p style=""margin-top:14px;"">請猜測您認為這張照片最可能拍攝的地點</p>
      </div>
    <div class=""progress-wrap"">
      <div class=""progress-label"">第 1 段&emsp;2 / 10</div>
      <div class=""progress-track"">
        <div class=""progress-fill"" style=""width:20%""></div>
      </div>
    </div>","3","page1","","","","","","","","","","","","","","","","","","","","","","","","","","","","","","","","","","","","","","","","","","","","","","","","","","","","","","","","","","","","","","","","","","","","","","","","","","","","","","","","","","","",""
"html-button-response","19","188538","0.0-19.0","P1779363471621_O9RUF9","2827","
        <div style=""text-align:center;padding-bottom:60px;"">
          <img src=""final_stimfile/italy_01_san_benigno_canavese-torre_dellabbazia_della_fruttuaria.jpg"" class=""stim-trial"" alt=""刺激圖片"">
          <p style=""margin-top:14px;"">您剛才選擇的答案是 <strong>摩洛哥</strong>，請問您對此選項的信心如何？</p>
          <p style=""color:#888;font-size:13px;"">（1 分 = 非常沒信心；5 分 = 非常有信心）</p>
        </div>
    <div class=""progress-wrap"">
      <div class=""progress-label"">第 1 段&emsp;2 / 10</div>
      <div class=""progress-track"">
        <div class=""progress-fill"" style=""width:20%""></div>
      </div>
    </div>","2","page2","","","","","","","","","","","","","","","","","","","","","","","","","","","","","","","","","","","","","","","","","","","","","","","","","","","","","","","","","","","","","","","","","","","","","","","","","","","","","","","","","","","",""
"html-button-response","20","201459","0.0-20.0","P1779363471621_O9RUF9","12920","
      <div style=""display:flex;height:calc(100vh - 130px);min-height:400px;"">

        <!-- ── Left 50 %: stimulus image ── -->
        <div style=""flex:0 0 50%;display:flex;align-items:center;justify-content:center;padding:28px 16px 28px 28px;"">
          <img src=""final_stimfile/italy_01_san_benigno_canavese-torre_dellabbazia_della_fruttuaria.jpg""
               style=""max-width:100%;max-height:100%;object-fit:contain;border-radius:6px;""
               alt=""刺激圖片"">
        </div>

        <!-- ── Right 50 %: top (avatar) + bottom (chat) ── -->
        <div style=""flex:1;display:flex;flex-direction:column;padding:16px 28px 16px 16px;min-width:0;"">

          <!-- Top 40 %: robot avatar, centred -->
          <div style=""flex:0 0 40%;display:flex;flex-direction:column;align-items:center;justify-content:center;gap:10px;"">
            <img src=""stimulus/level3.png""
                 style=""width:120px;height:120px;object-fit:contain;border-radius:50%;""
                 alt="""">
            <span style=""font-size:14px;color:#555;"">機器人 A</span>
          </div>

          <!-- Bottom 60 %: chat messages -->
          <div style=""flex:1;overflow-y:auto;padding-top:6px;"">
            <div class=""chat-messages"" id=""chat-msg-area""></div>
          </div>

        </div>
      </div>
    <div class=""progress-wrap"">
      <div class=""progress-label"">第 1 段&emsp;2 / 10</div>
      <div class=""progress-track"">
        <div class=""progress-fill"" style=""width:20%""></div>
      </div>
    </div>","0","page3","","","","","","","","","","","","","","","","","","","","","","","","","","","","","","","","","","","","","","","","","","","","","","","","","","","","","","","","","","","","","","","","","","","","","","","","","","","","","","","","","","","",""
"html-button-response","21","206928","0.0-21.0","P1779363471621_O9RUF9","5466","
        <div style=""text-align:center;padding-bottom:60px;"">
          <img src=""final_stimfile/italy_01_san_benigno_canavese-torre_dellabbazia_della_fruttuaria.jpg"" class=""stim-trial"" alt=""刺激圖片"">
          <p style=""margin-top:14px;"">
            您上次選擇的是 <strong>摩洛哥</strong>，
            機器人認為這裡是 <strong>義大利</strong>，<br>
            請再次猜測您認為這張照片最可能拍攝的地點
          </p>
        </div>
    <div class=""progress-wrap"">
      <div class=""progress-label"">第 1 段&emsp;2 / 10</div>
      <div class=""progress-track"">
        <div class=""progress-fill"" style=""width:20%""></div>
      </div>
    </div>","0","page4","","","","","","","","","","","","","","","","","","","","","","","","","","","","","","","","","","","","","","","","","","","","","","","","","","","","","","","","","","","","","","","","","","","","","","","","","","","","","","","","","","","",""
"html-button-response","22","213823","0.0-22.0","P1779363471621_O9RUF9","6892","
        <div style=""text-align:center;padding-bottom:60px;"">
          <img src=""final_stimfile/italy_01_san_benigno_canavese-torre_dellabbazia_della_fruttuaria.jpg"" class=""stim-trial"" alt=""刺激圖片"">
          <p style=""margin-top:14px;"">您剛才選擇的答案是 <strong>義大利</strong>，請問您對此選項的信心如何？</p>
          <p style=""color:#888;font-size:13px;"">（1 分 = 非常沒信心；5 分 = 非常有信心）</p>
        </div>
    <div class=""progress-wrap"">
      <div class=""progress-label"">第 1 段&emsp;2 / 10</div>
      <div class=""progress-track"">
        <div class=""progress-fill"" style=""width:20%""></div>
      </div>
    </div>","3","trial","","","","","level3","2","0","2","2","2","italy_01_san_benigno_canavese-torre_dellabbazia_della_fruttuaria","義大利","摩洛哥","false","3","義大利","true","4","16717","5466","12920","6892","","","","","","","","","","","","","","","","","","","","","","","","","","","","","","","","","","","","","","","","","","","","","","","","","","","","","","","","","","","","","",""
"html-button-response","23","232298","0.0-23.0","P1779363471621_O9RUF9","18472","
      <div style=""text-align:center;padding-bottom:60px;"">
        <img src=""final_stimfile/canada_051501_mcgill_college_05.jpg"" class=""stim-trial"" alt=""刺激圖片"">
        <p style=""margin-top:14px;"">請猜測您認為這張照片最可能拍攝的地點</p>
      </div>
    <div class=""progress-wrap"">
      <div class=""progress-label"">第 1 段&emsp;3 / 10</div>
      <div class=""progress-track"">
        <div class=""progress-fill"" style=""width:30%""></div>
      </div>
    </div>","2","page1","","","","","","","","","","","","","","","","","","","","","","","","","","","","","","","","","","","","","","","","","","","","","","","","","","","","","","","","","","","","","","","","","","","","","","","","","","","","","","","","","","","",""
"html-button-response","24","233569","0.0-24.0","P1779363471621_O9RUF9","1270","
        <div style=""text-align:center;padding-bottom:60px;"">
          <img src=""final_stimfile/canada_051501_mcgill_college_05.jpg"" class=""stim-trial"" alt=""刺激圖片"">
          <p style=""margin-top:14px;"">您剛才選擇的答案是 <strong>澳洲</strong>，請問您對此選項的信心如何？</p>
          <p style=""color:#888;font-size:13px;"">（1 分 = 非常沒信心；5 分 = 非常有信心）</p>
        </div>
    <div class=""progress-wrap"">
      <div class=""progress-label"">第 1 段&emsp;3 / 10</div>
      <div class=""progress-track"">
        <div class=""progress-fill"" style=""width:30%""></div>
      </div>
    </div>","4","page2","","","","","","","","","","","","","","","","","","","","","","","","","","","","","","","","","","","","","","","","","","","","","","","","","","","","","","","","","","","","","","","","","","","","","","","","","","","","","","","","","","","",""
"html-button-response","25","245300","0.0-25.0","P1779363471621_O9RUF9","11729","
      <div style=""display:flex;height:calc(100vh - 130px);min-height:400px;"">

        <!-- ── Left 50 %: stimulus image ── -->
        <div style=""flex:0 0 50%;display:flex;align-items:center;justify-content:center;padding:28px 16px 28px 28px;"">
          <img src=""final_stimfile/canada_051501_mcgill_college_05.jpg""
               style=""max-width:100%;max-height:100%;object-fit:contain;border-radius:6px;""
               alt=""刺激圖片"">
        </div>

        <!-- ── Right 50 %: top (avatar) + bottom (chat) ── -->
        <div style=""flex:1;display:flex;flex-direction:column;padding:16px 28px 16px 16px;min-width:0;"">

          <!-- Top 40 %: robot avatar, centred -->
          <div style=""flex:0 0 40%;display:flex;flex-direction:column;align-items:center;justify-content:center;gap:10px;"">
            <img src=""stimulus/level3.png""
                 style=""width:120px;height:120px;object-fit:contain;border-radius:50%;""
                 alt="""">
            <span style=""font-size:14px;color:#555;"">機器人 A</span>
          </div>

          <!-- Bottom 60 %: chat messages -->
          <div style=""flex:1;overflow-y:auto;padding-top:6px;"">
            <div class=""chat-messages"" id=""chat-msg-area""></div>
          </div>

        </div>
      </div>
    <div class=""progress-wrap"">
      <div class=""progress-label"">第 1 段&emsp;3 / 10</div>
      <div class=""progress-track"">
        <div class=""progress-fill"" style=""width:30%""></div>
      </div>
    </div>","0","page3","","","","","","","","","","","","","","","","","","","","","","","","","","","","","","","","","","","","","","","","","","","","","","","","","","","","","","","","","","","","","","","","","","","","","","","","","","","","","","","","","","","",""
"html-button-response","26","249884","0.0-26.0","P1779363471621_O9RUF9","4582","
        <div style=""text-align:center;padding-bottom:60px;"">
          <img src=""final_stimfile/canada_051501_mcgill_college_05.jpg"" class=""stim-trial"" alt=""刺激圖片"">
          <p style=""margin-top:14px;"">
            您上次選擇的是 <strong>澳洲</strong>，
            機器人認為這裡是 <strong>加拿大</strong>，<br>
            請再次猜測您認為這張照片最可能拍攝的地點
          </p>
        </div>
    <div class=""progress-wrap"">
      <div class=""progress-label"">第 1 段&emsp;3 / 10</div>
      <div class=""progress-track"">
        <div class=""progress-fill"" style=""width:30%""></div>
      </div>
    </div>","2","page4","","","","","","","","","","","","","","","","","","","","","","","","","","","","","","","","","","","","","","","","","","","","","","","","","","","","","","","","","","","","","","","","","","","","","","","","","","","","","","","","","","","",""
"html-button-response","27","253106","0.0-27.0","P1779363471621_O9RUF9","3218","
        <div style=""text-align:center;padding-bottom:60px;"">
          <img src=""final_stimfile/canada_051501_mcgill_college_05.jpg"" class=""stim-trial"" alt=""刺激圖片"">
          <p style=""margin-top:14px;"">您剛才選擇的答案是 <strong>澳洲</strong>，請問您對此選項的信心如何？</p>
          <p style=""color:#888;font-size:13px;"">（1 分 = 非常沒信心；5 分 = 非常有信心）</p>
        </div>
    <div class=""progress-wrap"">
      <div class=""progress-label"">第 1 段&emsp;3 / 10</div>
      <div class=""progress-track"">
        <div class=""progress-fill"" style=""width:30%""></div>
      </div>
    </div>","3","trial","","","","","level3","2","0","2","3","3","canada_051501_mcgill_college_05","加拿大","澳洲","false","5","澳洲","false","4","18472","4582","11729","3218","","","","","","","","","","","","","","","","","","","","","","","","","","","","","","","","","","","","","","","","","","","","","","","","","","","","","","","","","","","","","",""
"html-button-response","28","277454","0.0-28.0","P1779363471621_O9RUF9","24345","
      <div style=""text-align:center;padding-bottom:60px;"">
        <img src=""final_stimfile/japan_02_fukuyama_museum_of_art_-_panoramio.jpg"" class=""stim-trial"" alt=""刺激圖片"">
        <p style=""margin-top:14px;"">請猜測您認為這張照片最可能拍攝的地點</p>
      </div>
    <div class=""progress-wrap"">
      <div class=""progress-label"">第 1 段&emsp;4 / 10</div>
      <div class=""progress-track"">
        <div class=""progress-fill"" style=""width:40%""></div>
      </div>
    </div>","0","page1","","","","","","","","","","","","","","","","","","","","","","","","","","","","","","","","","","","","","","","","","","","","","","","","","","","","","","","","","","","","","","","","","","","","","","","","","","","","","","","","","","","",""
"html-button-response","29","278615","0.0-29.0","P1779363471621_O9RUF9","1159","
        <div style=""text-align:center;padding-bottom:60px;"">
          <img src=""final_stimfile/japan_02_fukuyama_museum_of_art_-_panoramio.jpg"" class=""stim-trial"" alt=""刺激圖片"">
          <p style=""margin-top:14px;"">您剛才選擇的答案是 <strong>日本</strong>，請問您對此選項的信心如何？</p>
          <p style=""color:#888;font-size:13px;"">（1 分 = 非常沒信心；5 分 = 非常有信心）</p>
        </div>
    <div class=""progress-wrap"">
      <div class=""progress-label"">第 1 段&emsp;4 / 10</div>
      <div class=""progress-track"">
        <div class=""progress-fill"" style=""width:40%""></div>
      </div>
    </div>","4","page2","","","","","","","","","","","","","","","","","","","","","","","","","","","","","","","","","","","","","","","","","","","","","","","","","","","","","","","","","","","","","","","","","","","","","","","","","","","","","","","","","","","",""
"html-button-response","30","297903","0.0-30.0","P1779363471621_O9RUF9","19286","
      <div style=""display:flex;height:calc(100vh - 130px);min-height:400px;"">

        <!-- ── Left 50 %: stimulus image ── -->
        <div style=""flex:0 0 50%;display:flex;align-items:center;justify-content:center;padding:28px 16px 28px 28px;"">
          <img src=""final_stimfile/japan_02_fukuyama_museum_of_art_-_panoramio.jpg""
               style=""max-width:100%;max-height:100%;object-fit:contain;border-radius:6px;""
               alt=""刺激圖片"">
        </div>

        <!-- ── Right 50 %: top (avatar) + bottom (chat) ── -->
        <div style=""flex:1;display:flex;flex-direction:column;padding:16px 28px 16px 16px;min-width:0;"">

          <!-- Top 40 %: robot avatar, centred -->
          <div style=""flex:0 0 40%;display:flex;flex-direction:column;align-items:center;justify-content:center;gap:10px;"">
            <img src=""stimulus/level3.png""
                 style=""width:120px;height:120px;object-fit:contain;border-radius:50%;""
                 alt="""">
            <span style=""font-size:14px;color:#555;"">機器人 A</span>
          </div>

          <!-- Bottom 60 %: chat messages -->
          <div style=""flex:1;overflow-y:auto;padding-top:6px;"">
            <div class=""chat-messages"" id=""chat-msg-area""></div>
          </div>

        </div>
      </div>
    <div class=""progress-wrap"">
      <div class=""progress-label"">第 1 段&emsp;4 / 10</div>
      <div class=""progress-track"">
        <div class=""progress-fill"" style=""width:40%""></div>
      </div>
    </div>","0","page3","","","","","","","","","","","","","","","","","","","","","","","","","","","","","","","","","","","","","","","","","","","","","","","","","","","","","","","","","","","","","","","","","","","","","","","","","","","","","","","","","","","",""
"html-button-response","31","321681","0.0-31.0","P1779363471621_O9RUF9","23775","
        <div style=""text-align:center;padding-bottom:60px;"">
          <img src=""final_stimfile/japan_02_fukuyama_museum_of_art_-_panoramio.jpg"" class=""stim-trial"" alt=""刺激圖片"">
          <p style=""margin-top:14px;"">
            您上次選擇的是 <strong>日本</strong>，
            機器人認為這裡是 <strong>日本</strong>，<br>
            請再次猜測您認為這張照片最可能拍攝的地點
          </p>
        </div>
    <div class=""progress-wrap"">
      <div class=""progress-label"">第 1 段&emsp;4 / 10</div>
      <div class=""progress-track"">
        <div class=""progress-fill"" style=""width:40%""></div>
      </div>
    </div>","0","page4","","","","","","","","","","","","","","","","","","","","","","","","","","","","","","","","","","","","","","","","","","","","","","","","","","","","","","","","","","","","","","","","","","","","","","","","","","","","","","","","","","","",""
"html-button-response","32","531514","0.0-32.0","P1779363471621_O9RUF9","209830","
        <div style=""text-align:center;padding-bottom:60px;"">
          <img src=""final_stimfile/japan_02_fukuyama_museum_of_art_-_panoramio.jpg"" class=""stim-trial"" alt=""刺激圖片"">
          <p style=""margin-top:14px;"">您剛才選擇的答案是 <strong>日本</strong>，請問您對此選項的信心如何？</p>
          <p style=""color:#888;font-size:13px;"">（1 分 = 非常沒信心；5 分 = 非常有信心）</p>
        </div>
    <div class=""progress-wrap"">
      <div class=""progress-label"">第 1 段&emsp;4 / 10</div>
      <div class=""progress-track"">
        <div class=""progress-fill"" style=""width:40%""></div>
      </div>
    </div>","4","trial","","","","","level3","2","0","2","4","4","japan_02_fukuyama_museum_of_art_-_panoramio","日本","日本","true","5","日本","true","5","24345","23775","19286","209830","","","","","","","","","","","","","","","","","","","","","","","","","","","","","","","","","","","","","","","","","","","","","","","","","","","","","","","","","","","","","",""
"html-button-response","33","557455","0.0-33.0","P1779363471621_O9RUF9","25938","
      <div style=""text-align:center;padding-bottom:60px;"">
        <img src=""final_stimfile/us_03_2016-10-06_14_33_47_view_of_interstate_395_and_us_route_1_14th_street_bridge_as_it_crosses_the_potomac_river_to_washington_dc_from_the_river_shore_just_north_of_the_bridge_in_a.jpg"" class=""stim-trial"" alt=""刺激圖片"">
        <p style=""margin-top:14px;"">請猜測您認為這張照片最可能拍攝的地點</p>
      </div>
    <div class=""progress-wrap"">
      <div class=""progress-label"">第 1 段&emsp;5 / 10</div>
      <div class=""progress-track"">
        <div class=""progress-fill"" style=""width:50%""></div>
      </div>
    </div>","3","page1","","","","","","","","","","","","","","","","","","","","","","","","","","","","","","","","","","","","","","","","","","","","","","","","","","","","","","","","","","","","","","","","","","","","","","","","","","","","","","","","","","","",""
"html-button-response","34","559633","0.0-34.0","P1779363471621_O9RUF9","2177","
        <div style=""text-align:center;padding-bottom:60px;"">
          <img src=""final_stimfile/us_03_2016-10-06_14_33_47_view_of_interstate_395_and_us_route_1_14th_street_bridge_as_it_crosses_the_potomac_river_to_washington_dc_from_the_river_shore_just_north_of_the_bridge_in_a.jpg"" class=""stim-trial"" alt=""刺激圖片"">
          <p style=""margin-top:14px;"">您剛才選擇的答案是 <strong>澳洲</strong>，請問您對此選項的信心如何？</p>
          <p style=""color:#888;font-size:13px;"">（1 分 = 非常沒信心；5 分 = 非常有信心）</p>
        </div>
    <div class=""progress-wrap"">
      <div class=""progress-label"">第 1 段&emsp;5 / 10</div>
      <div class=""progress-track"">
        <div class=""progress-fill"" style=""width:50%""></div>
      </div>
    </div>","2","page2","","","","","","","","","","","","","","","","","","","","","","","","","","","","","","","","","","","","","","","","","","","","","","","","","","","","","","","","","","","","","","","","","","","","","","","","","","","","","","","","","","","",""
"html-button-response","35","572730","0.0-35.0","P1779363471621_O9RUF9","13094","
      <div style=""display:flex;height:calc(100vh - 130px);min-height:400px;"">

        <!-- ── Left 50 %: stimulus image ── -->
        <div style=""flex:0 0 50%;display:flex;align-items:center;justify-content:center;padding:28px 16px 28px 28px;"">
          <img src=""final_stimfile/us_03_2016-10-06_14_33_47_view_of_interstate_395_and_us_route_1_14th_street_bridge_as_it_crosses_the_potomac_river_to_washington_dc_from_the_river_shore_just_north_of_the_bridge_in_a.jpg""
               style=""max-width:100%;max-height:100%;object-fit:contain;border-radius:6px;""
               alt=""刺激圖片"">
        </div>

        <!-- ── Right 50 %: top (avatar) + bottom (chat) ── -->
        <div style=""flex:1;display:flex;flex-direction:column;padding:16px 28px 16px 16px;min-width:0;"">

          <!-- Top 40 %: robot avatar, centred -->
          <div style=""flex:0 0 40%;display:flex;flex-direction:column;align-items:center;justify-content:center;gap:10px;"">
            <img src=""stimulus/level3.png""
                 style=""width:120px;height:120px;object-fit:contain;border-radius:50%;""
                 alt="""">
            <span style=""font-size:14px;color:#555;"">機器人 A</span>
          </div>

          <!-- Bottom 60 %: chat messages -->
          <div style=""flex:1;overflow-y:auto;padding-top:6px;"">
            <div class=""chat-messages"" id=""chat-msg-area""></div>
          </div>

        </div>
      </div>
    <div class=""progress-wrap"">
      <div class=""progress-label"">第 1 段&emsp;5 / 10</div>
      <div class=""progress-track"">
        <div class=""progress-fill"" style=""width:50%""></div>
      </div>
    </div>","0","page3","","","","","","","","","","","","","","","","","","","","","","","","","","","","","","","","","","","","","","","","","","","","","","","","","","","","","","","","","","","","","","","","","","","","","","","","","","","","","","","","","","","",""
"html-button-response","36","573970","0.0-36.0","P1779363471621_O9RUF9","1237","
        <div style=""text-align:center;padding-bottom:60px;"">
          <img src=""final_stimfile/us_03_2016-10-06_14_33_47_view_of_interstate_395_and_us_route_1_14th_street_bridge_as_it_crosses_the_potomac_river_to_washington_dc_from_the_river_shore_just_north_of_the_bridge_in_a.jpg"" class=""stim-trial"" alt=""刺激圖片"">
          <p style=""margin-top:14px;"">
            您上次選擇的是 <strong>澳洲</strong>，
            機器人認為這裡是 <strong>美國</strong>，<br>
            請再次猜測您認為這張照片最可能拍攝的地點
          </p>
        </div>
    <div class=""progress-wrap"">
      <div class=""progress-label"">第 1 段&emsp;5 / 10</div>
      <div class=""progress-track"">
        <div class=""progress-fill"" style=""width:50%""></div>
      </div>
    </div>","0","page4","","","","","","","","","","","","","","","","","","","","","","","","","","","","","","","","","","","","","","","","","","","","","","","","","","","","","","","","","","","","","","","","","","","","","","","","","","","","","","","","","","","",""
"html-button-response","37","575147","0.0-37.0","P1779363471621_O9RUF9","1173","
        <div style=""text-align:center;padding-bottom:60px;"">
          <img src=""final_stimfile/us_03_2016-10-06_14_33_47_view_of_interstate_395_and_us_route_1_14th_street_bridge_as_it_crosses_the_potomac_river_to_washington_dc_from_the_river_shore_just_north_of_the_bridge_in_a.jpg"" class=""stim-trial"" alt=""刺激圖片"">
          <p style=""margin-top:14px;"">您剛才選擇的答案是 <strong>美國</strong>，請問您對此選項的信心如何？</p>
          <p style=""color:#888;font-size:13px;"">（1 分 = 非常沒信心；5 分 = 非常有信心）</p>
        </div>
    <div class=""progress-wrap"">
      <div class=""progress-label"">第 1 段&emsp;5 / 10</div>
      <div class=""progress-track"">
        <div class=""progress-fill"" style=""width:50%""></div>
      </div>
    </div>","3","trial","","","","","level3","2","0","2","5","5","us_03_2016-10-06_14_33_47_view_of_interstate_395_and_us_route_1_14th_street_bridge_as_it_crosses_the_potomac_river_to_washington_dc_from_the_river_shore_just_north_of_the_bridge_in_a","美國","澳洲","false","3","美國","true","4","25938","1237","13094","1173","","","","","","","","","","","","","","","","","","","","","","","","","","","","","","","","","","","","","","","","","","","","","","","","","","","","","","","","","","","","","",""
"html-button-response","38","653186","0.0-38.0","P1779363471621_O9RUF9","78037","
      <div style=""text-align:center;padding-bottom:60px;"">
        <img src=""final_stimfile/india_01_allahabad_fort.jpg"" class=""stim-trial"" alt=""刺激圖片"">
        <p style=""margin-top:14px;"">請猜測您認為這張照片最可能拍攝的地點</p>
      </div>
    <div class=""progress-wrap"">
      <div class=""progress-label"">第 1 段&emsp;6 / 10</div>
      <div class=""progress-track"">
        <div class=""progress-fill"" style=""width:60%""></div>
      </div>
    </div>","0","page1","","","","","","","","","","","","","","","","","","","","","","","","","","","","","","","","","","","","","","","","","","","","","","","","","","","","","","","","","","","","","","","","","","","","","","","","","","","","","","","","","","","",""
"html-button-response","39","654488","0.0-39.0","P1779363471621_O9RUF9","1299","
        <div style=""text-align:center;padding-bottom:60px;"">
          <img src=""final_stimfile/india_01_allahabad_fort.jpg"" class=""stim-trial"" alt=""刺激圖片"">
          <p style=""margin-top:14px;"">您剛才選擇的答案是 <strong>印度</strong>，請問您對此選項的信心如何？</p>
          <p style=""color:#888;font-size:13px;"">（1 分 = 非常沒信心；5 分 = 非常有信心）</p>
        </div>
    <div class=""progress-wrap"">
      <div class=""progress-label"">第 1 段&emsp;6 / 10</div>
      <div class=""progress-track"">
        <div class=""progress-fill"" style=""width:60%""></div>
      </div>
    </div>","3","page2","","","","","","","","","","","","","","","","","","","","","","","","","","","","","","","","","","","","","","","","","","","","","","","","","","","","","","","","","","","","","","","","","","","","","","","","","","","","","","","","","","","",""
"html-button-response","40","665180","0.0-40.0","P1779363471621_O9RUF9","10689","
      <div style=""display:flex;height:calc(100vh - 130px);min-height:400px;"">

        <!-- ── Left 50 %: stimulus image ── -->
        <div style=""flex:0 0 50%;display:flex;align-items:center;justify-content:center;padding:28px 16px 28px 28px;"">
          <img src=""final_stimfile/india_01_allahabad_fort.jpg""
               style=""max-width:100%;max-height:100%;object-fit:contain;border-radius:6px;""
               alt=""刺激圖片"">
        </div>

        <!-- ── Right 50 %: top (avatar) + bottom (chat) ── -->
        <div style=""flex:1;display:flex;flex-direction:column;padding:16px 28px 16px 16px;min-width:0;"">

          <!-- Top 40 %: robot avatar, centred -->
          <div style=""flex:0 0 40%;display:flex;flex-direction:column;align-items:center;justify-content:center;gap:10px;"">
            <img src=""stimulus/level3.png""
                 style=""width:120px;height:120px;object-fit:contain;border-radius:50%;""
                 alt="""">
            <span style=""font-size:14px;color:#555;"">機器人 A</span>
          </div>

          <!-- Bottom 60 %: chat messages -->
          <div style=""flex:1;overflow-y:auto;padding-top:6px;"">
            <div class=""chat-messages"" id=""chat-msg-area""></div>
          </div>

        </div>
      </div>
    <div class=""progress-wrap"">
      <div class=""progress-label"">第 1 段&emsp;6 / 10</div>
      <div class=""progress-track"">
        <div class=""progress-fill"" style=""width:60%""></div>
      </div>
    </div>","0","page3","","","","","","","","","","","","","","","","","","","","","","","","","","","","","","","","","","","","","","","","","","","","","","","","","","","","","","","","","","","","","","","","","","","","","","","","","","","","","","","","","","","",""
"html-button-response","41","667986","0.0-41.0","P1779363471621_O9RUF9","2805","
        <div style=""text-align:center;padding-bottom:60px;"">
          <img src=""final_stimfile/india_01_allahabad_fort.jpg"" class=""stim-trial"" alt=""刺激圖片"">
          <p style=""margin-top:14px;"">
            您上次選擇的是 <strong>印度</strong>，
            機器人認為這裡是 <strong>印度</strong>，<br>
            請再次猜測您認為這張照片最可能拍攝的地點
          </p>
        </div>
    <div class=""progress-wrap"">
      <div class=""progress-label"">第 1 段&emsp;6 / 10</div>
      <div class=""progress-track"">
        <div class=""progress-fill"" style=""width:60%""></div>
      </div>
    </div>","0","page4","","","","","","","","","","","","","","","","","","","","","","","","","","","","","","","","","","","","","","","","","","","","","","","","","","","","","","","","","","","","","","","","","","","","","","","","","","","","","","","","","","","",""
"html-button-response","42","669344","0.0-42.0","P1779363471621_O9RUF9","1356","
        <div style=""text-align:center;padding-bottom:60px;"">
          <img src=""final_stimfile/india_01_allahabad_fort.jpg"" class=""stim-trial"" alt=""刺激圖片"">
          <p style=""margin-top:14px;"">您剛才選擇的答案是 <strong>印度</strong>，請問您對此選項的信心如何？</p>
          <p style=""color:#888;font-size:13px;"">（1 分 = 非常沒信心；5 分 = 非常有信心）</p>
        </div>
    <div class=""progress-wrap"">
      <div class=""progress-label"">第 1 段&emsp;6 / 10</div>
      <div class=""progress-track"">
        <div class=""progress-fill"" style=""width:60%""></div>
      </div>
    </div>","4","trial","","","","","level3","2","0","2","6","6","india_01_allahabad_fort","印度","印度","true","4","印度","true","5","78037","2805","10689","1356","","","","","","","","","","","","","","","","","","","","","","","","","","","","","","","","","","","","","","","","","","","","","","","","","","","","","","","","","","","","","",""
"html-button-response","43","671974","0.0-43.0","P1779363471621_O9RUF9","2628","
      <div style=""text-align:center;padding-bottom:60px;"">
        <img src=""final_stimfile/spain_02_2017_08_41_adarra_aballarri.jpg"" class=""stim-trial"" alt=""刺激圖片"">
        <p style=""margin-top:14px;"">請猜測您認為這張照片最可能拍攝的地點</p>
      </div>
    <div class=""progress-wrap"">
      <div class=""progress-label"">第 1 段&emsp;7 / 10</div>
      <div class=""progress-track"">
        <div class=""progress-fill"" style=""width:70%""></div>
      </div>
    </div>","3","page1","","","","","","","","","","","","","","","","","","","","","","","","","","","","","","","","","","","","","","","","","","","","","","","","","","","","","","","","","","","","","","","","","","","","","","","","","","","","","","","","","","","",""
"html-button-response","44","672817","0.0-44.0","P1779363471621_O9RUF9","841","
        <div style=""text-align:center;padding-bottom:60px;"">
          <img src=""final_stimfile/spain_02_2017_08_41_adarra_aballarri.jpg"" class=""stim-trial"" alt=""刺激圖片"">
          <p style=""margin-top:14px;"">您剛才選擇的答案是 <strong>紐西蘭</strong>，請問您對此選項的信心如何？</p>
          <p style=""color:#888;font-size:13px;"">（1 分 = 非常沒信心；5 分 = 非常有信心）</p>
        </div>
    <div class=""progress-wrap"">
      <div class=""progress-label"">第 1 段&emsp;7 / 10</div>
      <div class=""progress-track"">
        <div class=""progress-fill"" style=""width:70%""></div>
      </div>
    </div>","4","page2","","","","","","","","","","","","","","","","","","","","","","","","","","","","","","","","","","","","","","","","","","","","","","","","","","","","","","","","","","","","","","","","","","","","","","","","","","","","","","","","","","","",""
"html-button-response","45","686091","0.0-45.0","P1779363471621_O9RUF9","13269","
      <div style=""display:flex;height:calc(100vh - 130px);min-height:400px;"">

        <!-- ── Left 50 %: stimulus image ── -->
        <div style=""flex:0 0 50%;display:flex;align-items:center;justify-content:center;padding:28px 16px 28px 28px;"">
          <img src=""final_stimfile/spain_02_2017_08_41_adarra_aballarri.jpg""
               style=""max-width:100%;max-height:100%;object-fit:contain;border-radius:6px;""
               alt=""刺激圖片"">
        </div>

        <!-- ── Right 50 %: top (avatar) + bottom (chat) ── -->
        <div style=""flex:1;display:flex;flex-direction:column;padding:16px 28px 16px 16px;min-width:0;"">

          <!-- Top 40 %: robot avatar, centred -->
          <div style=""flex:0 0 40%;display:flex;flex-direction:column;align-items:center;justify-content:center;gap:10px;"">
            <img src=""stimulus/level3.png""
                 style=""width:120px;height:120px;object-fit:contain;border-radius:50%;""
                 alt="""">
            <span style=""font-size:14px;color:#555;"">機器人 A</span>
          </div>

          <!-- Bottom 60 %: chat messages -->
          <div style=""flex:1;overflow-y:auto;padding-top:6px;"">
            <div class=""chat-messages"" id=""chat-msg-area""></div>
          </div>

        </div>
      </div>
    <div class=""progress-wrap"">
      <div class=""progress-label"">第 1 段&emsp;7 / 10</div>
      <div class=""progress-track"">
        <div class=""progress-fill"" style=""width:70%""></div>
      </div>
    </div>","0","page3","","","","","","","","","","","","","","","","","","","","","","","","","","","","","","","","","","","","","","","","","","","","","","","","","","","","","","","","","","","","","","","","","","","","","","","","","","","","","","","","","","","",""
"html-button-response","46","697251","0.0-46.0","P1779363471621_O9RUF9","11158","
        <div style=""text-align:center;padding-bottom:60px;"">
          <img src=""final_stimfile/spain_02_2017_08_41_adarra_aballarri.jpg"" class=""stim-trial"" alt=""刺激圖片"">
          <p style=""margin-top:14px;"">
            您上次選擇的是 <strong>紐西蘭</strong>，
            機器人認為這裡是 <strong>西班牙</strong>，<br>
            請再次猜測您認為這張照片最可能拍攝的地點
          </p>
        </div>
    <div class=""progress-wrap"">
      <div class=""progress-label"">第 1 段&emsp;7 / 10</div>
      <div class=""progress-track"">
        <div class=""progress-fill"" style=""width:70%""></div>
      </div>
    </div>","3","page4","","","","","","","","","","","","","","","","","","","","","","","","","","","","","","","","","","","","","","","","","","","","","","","","","","","","","","","","","","","","","","","","","","","","","","","","","","","","","","","","","","","",""
"html-button-response","47","698332","0.0-47.0","P1779363471621_O9RUF9","1078","
        <div style=""text-align:center;padding-bottom:60px;"">
          <img src=""final_stimfile/spain_02_2017_08_41_adarra_aballarri.jpg"" class=""stim-trial"" alt=""刺激圖片"">
          <p style=""margin-top:14px;"">您剛才選擇的答案是 <strong>紐西蘭</strong>，請問您對此選項的信心如何？</p>
          <p style=""color:#888;font-size:13px;"">（1 分 = 非常沒信心；5 分 = 非常有信心）</p>
        </div>
    <div class=""progress-wrap"">
      <div class=""progress-label"">第 1 段&emsp;7 / 10</div>
      <div class=""progress-track"">
        <div class=""progress-fill"" style=""width:70%""></div>
      </div>
    </div>","4","trial","","","","","level3","2","0","2","7","7","spain_02_2017_08_41_adarra_aballarri","西班牙","紐西蘭","false","5","紐西蘭","false","5","2628","11158","13269","1078","","","","","","","","","","","","","","","","","","","","","","","","","","","","","","","","","","","","","","","","","","","","","","","","","","","","","","","","","","","","","",""
"html-button-response","48","728493","0.0-48.0","P1779363471621_O9RUF9","30160","
      <div style=""text-align:center;padding-bottom:60px;"">
        <img src=""final_stimfile/argentina_02_elchaltenfitzroy.jpg"" class=""stim-trial"" alt=""刺激圖片"">
        <p style=""margin-top:14px;"">請猜測您認為這張照片最可能拍攝的地點</p>
      </div>
    <div class=""progress-wrap"">
      <div class=""progress-label"">第 1 段&emsp;8 / 10</div>
      <div class=""progress-track"">
        <div class=""progress-fill"" style=""width:80%""></div>
      </div>
    </div>","3","page1","","","","","","","","","","","","","","","","","","","","","","","","","","","","","","","","","","","","","","","","","","","","","","","","","","","","","","","","","","","","","","","","","","","","","","","","","","","","","","","","","","","",""
"html-button-response","49","729476","0.0-49.0","P1779363471621_O9RUF9","980","
        <div style=""text-align:center;padding-bottom:60px;"">
          <img src=""final_stimfile/argentina_02_elchaltenfitzroy.jpg"" class=""stim-trial"" alt=""刺激圖片"">
          <p style=""margin-top:14px;"">您剛才選擇的答案是 <strong>肯亞</strong>，請問您對此選項的信心如何？</p>
          <p style=""color:#888;font-size:13px;"">（1 分 = 非常沒信心；5 分 = 非常有信心）</p>
        </div>
    <div class=""progress-wrap"">
      <div class=""progress-label"">第 1 段&emsp;8 / 10</div>
      <div class=""progress-track"">
        <div class=""progress-fill"" style=""width:80%""></div>
      </div>
    </div>","3","page2","","","","","","","","","","","","","","","","","","","","","","","","","","","","","","","","","","","","","","","","","","","","","","","","","","","","","","","","","","","","","","","","","","","","","","","","","","","","","","","","","","","",""
"html-button-response","50","742442","0.0-50.0","P1779363471621_O9RUF9","12959","
      <div style=""display:flex;height:calc(100vh - 130px);min-height:400px;"">

        <!-- ── Left 50 %: stimulus image ── -->
        <div style=""flex:0 0 50%;display:flex;align-items:center;justify-content:center;padding:28px 16px 28px 28px;"">
          <img src=""final_stimfile/argentina_02_elchaltenfitzroy.jpg""
               style=""max-width:100%;max-height:100%;object-fit:contain;border-radius:6px;""
               alt=""刺激圖片"">
        </div>

        <!-- ── Right 50 %: top (avatar) + bottom (chat) ── -->
        <div style=""flex:1;display:flex;flex-direction:column;padding:16px 28px 16px 16px;min-width:0;"">

          <!-- Top 40 %: robot avatar, centred -->
          <div style=""flex:0 0 40%;display:flex;flex-direction:column;align-items:center;justify-content:center;gap:10px;"">
            <img src=""stimulus/level3.png""
                 style=""width:120px;height:120px;object-fit:contain;border-radius:50%;""
                 alt="""">
            <span style=""font-size:14px;color:#555;"">機器人 A</span>
          </div>

          <!-- Bottom 60 %: chat messages -->
          <div style=""flex:1;overflow-y:auto;padding-top:6px;"">
            <div class=""chat-messages"" id=""chat-msg-area""></div>
          </div>

        </div>
      </div>
    <div class=""progress-wrap"">
      <div class=""progress-label"">第 1 段&emsp;8 / 10</div>
      <div class=""progress-track"">
        <div class=""progress-fill"" style=""width:80%""></div>
      </div>
    </div>","0","page3","","","","","","","","","","","","","","","","","","","","","","","","","","","","","","","","","","","","","","","","","","","","","","","","","","","","","","","","","","","","","","","","","","","","","","","","","","","","","","","","","","","",""
"html-button-response","51","746716","0.0-51.0","P1779363471621_O9RUF9","4272","
        <div style=""text-align:center;padding-bottom:60px;"">
          <img src=""final_stimfile/argentina_02_elchaltenfitzroy.jpg"" class=""stim-trial"" alt=""刺激圖片"">
          <p style=""margin-top:14px;"">
            您上次選擇的是 <strong>肯亞</strong>，
            機器人認為這裡是 <strong>阿根廷</strong>，<br>
            請再次猜測您認為這張照片最可能拍攝的地點
          </p>
        </div>
    <div class=""progress-wrap"">
      <div class=""progress-label"">第 1 段&emsp;8 / 10</div>
      <div class=""progress-track"">
        <div class=""progress-fill"" style=""width:80%""></div>
      </div>
    </div>","3","page4","","","","","","","","","","","","","","","","","","","","","","","","","","","","","","","","","","","","","","","","","","","","","","","","","","","","","","","","","","","","","","","","","","","","","","","","","","","","","","","","","","","",""
"html-button-response","52","748025","0.0-52.0","P1779363471621_O9RUF9","1306","
        <div style=""text-align:center;padding-bottom:60px;"">
          <img src=""final_stimfile/argentina_02_elchaltenfitzroy.jpg"" class=""stim-trial"" alt=""刺激圖片"">
          <p style=""margin-top:14px;"">您剛才選擇的答案是 <strong>肯亞</strong>，請問您對此選項的信心如何？</p>
          <p style=""color:#888;font-size:13px;"">（1 分 = 非常沒信心；5 分 = 非常有信心）</p>
        </div>
    <div class=""progress-wrap"">
      <div class=""progress-label"">第 1 段&emsp;8 / 10</div>
      <div class=""progress-track"">
        <div class=""progress-fill"" style=""width:80%""></div>
      </div>
    </div>","2","trial","","","","","level3","2","0","2","8","8","argentina_02_elchaltenfitzroy","阿根廷","肯亞","false","4","肯亞","false","3","30160","4272","12959","1306","","","","","","","","","","","","","","","","","","","","","","","","","","","","","","","","","","","","","","","","","","","","","","","","","","","","","","","","","","","","","",""
"html-button-response","53","756247","0.0-53.0","P1779363471621_O9RUF9","8220","
      <div style=""text-align:center;padding-bottom:60px;"">
        <img src=""final_stimfile/columnbia_santuariade_neustra_sanctuary.jpg"" class=""stim-trial"" alt=""刺激圖片"">
        <p style=""margin-top:14px;"">請猜測您認為這張照片最可能拍攝的地點</p>
      </div>
    <div class=""progress-wrap"">
      <div class=""progress-label"">第 1 段&emsp;9 / 10</div>
      <div class=""progress-track"">
        <div class=""progress-fill"" style=""width:90%""></div>
      </div>
    </div>","2","page1","","","","","","","","","","","","","","","","","","","","","","","","","","","","","","","","","","","","","","","","","","","","","","","","","","","","","","","","","","","","","","","","","","","","","","","","","","","","","","","","","","","",""
"html-button-response","54","757203","0.0-54.0","P1779363471621_O9RUF9","953","
        <div style=""text-align:center;padding-bottom:60px;"">
          <img src=""final_stimfile/columnbia_santuariade_neustra_sanctuary.jpg"" class=""stim-trial"" alt=""刺激圖片"">
          <p style=""margin-top:14px;"">您剛才選擇的答案是 <strong>葡萄牙</strong>，請問您對此選項的信心如何？</p>
          <p style=""color:#888;font-size:13px;"">（1 分 = 非常沒信心；5 分 = 非常有信心）</p>
        </div>
    <div class=""progress-wrap"">
      <div class=""progress-label"">第 1 段&emsp;9 / 10</div>
      <div class=""progress-track"">
        <div class=""progress-fill"" style=""width:90%""></div>
      </div>
    </div>","3","page2","","","","","","","","","","","","","","","","","","","","","","","","","","","","","","","","","","","","","","","","","","","","","","","","","","","","","","","","","","","","","","","","","","","","","","","","","","","","","","","","","","","",""
"html-button-response","55","770232","0.0-55.0","P1779363471621_O9RUF9","13025","
      <div style=""display:flex;height:calc(100vh - 130px);min-height:400px;"">

        <!-- ── Left 50 %: stimulus image ── -->
        <div style=""flex:0 0 50%;display:flex;align-items:center;justify-content:center;padding:28px 16px 28px 28px;"">
          <img src=""final_stimfile/columnbia_santuariade_neustra_sanctuary.jpg""
               style=""max-width:100%;max-height:100%;object-fit:contain;border-radius:6px;""
               alt=""刺激圖片"">
        </div>

        <!-- ── Right 50 %: top (avatar) + bottom (chat) ── -->
        <div style=""flex:1;display:flex;flex-direction:column;padding:16px 28px 16px 16px;min-width:0;"">

          <!-- Top 40 %: robot avatar, centred -->
          <div style=""flex:0 0 40%;display:flex;flex-direction:column;align-items:center;justify-content:center;gap:10px;"">
            <img src=""stimulus/level3.png""
                 style=""width:120px;height:120px;object-fit:contain;border-radius:50%;""
                 alt="""">
            <span style=""font-size:14px;color:#555;"">機器人 A</span>
          </div>

          <!-- Bottom 60 %: chat messages -->
          <div style=""flex:1;overflow-y:auto;padding-top:6px;"">
            <div class=""chat-messages"" id=""chat-msg-area""></div>
          </div>

        </div>
      </div>
    <div class=""progress-wrap"">
      <div class=""progress-label"">第 1 段&emsp;9 / 10</div>
      <div class=""progress-track"">
        <div class=""progress-fill"" style=""width:90%""></div>
      </div>
    </div>","0","page3","","","","","","","","","","","","","","","","","","","","","","","","","","","","","","","","","","","","","","","","","","","","","","","","","","","","","","","","","","","","","","","","","","","","","","","","","","","","","","","","","","","",""
"html-button-response","56","773757","0.0-56.0","P1779363471621_O9RUF9","3523","
        <div style=""text-align:center;padding-bottom:60px;"">
          <img src=""final_stimfile/columnbia_santuariade_neustra_sanctuary.jpg"" class=""stim-trial"" alt=""刺激圖片"">
          <p style=""margin-top:14px;"">
            您上次選擇的是 <strong>葡萄牙</strong>，
            機器人認為這裡是 <strong>哥倫比亞</strong>，<br>
            請再次猜測您認為這張照片最可能拍攝的地點
          </p>
        </div>
    <div class=""progress-wrap"">
      <div class=""progress-label"">第 1 段&emsp;9 / 10</div>
      <div class=""progress-track"">
        <div class=""progress-fill"" style=""width:90%""></div>
      </div>
    </div>","0","page4","","","","","","","","","","","","","","","","","","","","","","","","","","","","","","","","","","","","","","","","","","","","","","","","","","","","","","","","","","","","","","","","","","","","","","","","","","","","","","","","","","","",""
"html-button-response","57","774856","0.0-57.0","P1779363471621_O9RUF9","1095","
        <div style=""text-align:center;padding-bottom:60px;"">
          <img src=""final_stimfile/columnbia_santuariade_neustra_sanctuary.jpg"" class=""stim-trial"" alt=""刺激圖片"">
          <p style=""margin-top:14px;"">您剛才選擇的答案是 <strong>哥倫比亞</strong>，請問您對此選項的信心如何？</p>
          <p style=""color:#888;font-size:13px;"">（1 分 = 非常沒信心；5 分 = 非常有信心）</p>
        </div>
    <div class=""progress-wrap"">
      <div class=""progress-label"">第 1 段&emsp;9 / 10</div>
      <div class=""progress-track"">
        <div class=""progress-fill"" style=""width:90%""></div>
      </div>
    </div>","3","trial","","","","","level3","2","0","2","9","9","columnbia_santuariade_neustra_sanctuary","哥倫比亞","葡萄牙","false","4","哥倫比亞","true","4","8220","3523","13025","1095","","","","","","","","","","","","","","","","","","","","","","","","","","","","","","","","","","","","","","","","","","","","","","","","","","","","","","","","","","","","","",""
"html-button-response","58","785158","0.0-58.0","P1779363471621_O9RUF9","10300","
      <div style=""text-align:center;padding-bottom:60px;"">
        <img src=""final_stimfile/argentina_01_antigua_estacion_trelew_3.jpg"" class=""stim-trial"" alt=""刺激圖片"">
        <p style=""margin-top:14px;"">請猜測您認為這張照片最可能拍攝的地點</p>
      </div>
    <div class=""progress-wrap"">
      <div class=""progress-label"">第 1 段&emsp;10 / 10</div>
      <div class=""progress-track"">
        <div class=""progress-fill"" style=""width:100%""></div>
      </div>
    </div>","2","page1","","","","","","","","","","","","","","","","","","","","","","","","","","","","","","","","","","","","","","","","","","","","","","","","","","","","","","","","","","","","","","","","","","","","","","","","","","","","","","","","","","","",""
"html-button-response","59","786089","0.0-59.0","P1779363471621_O9RUF9","928","
        <div style=""text-align:center;padding-bottom:60px;"">
          <img src=""final_stimfile/argentina_01_antigua_estacion_trelew_3.jpg"" class=""stim-trial"" alt=""刺激圖片"">
          <p style=""margin-top:14px;"">您剛才選擇的答案是 <strong>日本</strong>，請問您對此選項的信心如何？</p>
          <p style=""color:#888;font-size:13px;"">（1 分 = 非常沒信心；5 分 = 非常有信心）</p>
        </div>
    <div class=""progress-wrap"">
      <div class=""progress-label"">第 1 段&emsp;10 / 10</div>
      <div class=""progress-track"">
        <div class=""progress-fill"" style=""width:100%""></div>
      </div>
    </div>","3","page2","","","","","","","","","","","","","","","","","","","","","","","","","","","","","","","","","","","","","","","","","","","","","","","","","","","","","","","","","","","","","","","","","","","","","","","","","","","","","","","","","","","",""
"html-button-response","60","797370","0.0-60.0","P1779363471621_O9RUF9","11277","
      <div style=""display:flex;height:calc(100vh - 130px);min-height:400px;"">

        <!-- ── Left 50 %: stimulus image ── -->
        <div style=""flex:0 0 50%;display:flex;align-items:center;justify-content:center;padding:28px 16px 28px 28px;"">
          <img src=""final_stimfile/argentina_01_antigua_estacion_trelew_3.jpg""
               style=""max-width:100%;max-height:100%;object-fit:contain;border-radius:6px;""
               alt=""刺激圖片"">
        </div>

        <!-- ── Right 50 %: top (avatar) + bottom (chat) ── -->
        <div style=""flex:1;display:flex;flex-direction:column;padding:16px 28px 16px 16px;min-width:0;"">

          <!-- Top 40 %: robot avatar, centred -->
          <div style=""flex:0 0 40%;display:flex;flex-direction:column;align-items:center;justify-content:center;gap:10px;"">
            <img src=""stimulus/level3.png""
                 style=""width:120px;height:120px;object-fit:contain;border-radius:50%;""
                 alt="""">
            <span style=""font-size:14px;color:#555;"">機器人 A</span>
          </div>

          <!-- Bottom 60 %: chat messages -->
          <div style=""flex:1;overflow-y:auto;padding-top:6px;"">
            <div class=""chat-messages"" id=""chat-msg-area""></div>
          </div>

        </div>
      </div>
    <div class=""progress-wrap"">
      <div class=""progress-label"">第 1 段&emsp;10 / 10</div>
      <div class=""progress-track"">
        <div class=""progress-fill"" style=""width:100%""></div>
      </div>
    </div>","0","page3","","","","","","","","","","","","","","","","","","","","","","","","","","","","","","","","","","","","","","","","","","","","","","","","","","","","","","","","","","","","","","","","","","","","","","","","","","","","","","","","","","","",""
"html-button-response","61","798250","0.0-61.0","P1779363471621_O9RUF9","878","
        <div style=""text-align:center;padding-bottom:60px;"">
          <img src=""final_stimfile/argentina_01_antigua_estacion_trelew_3.jpg"" class=""stim-trial"" alt=""刺激圖片"">
          <p style=""margin-top:14px;"">
            您上次選擇的是 <strong>日本</strong>，
            機器人認為這裡是 <strong>阿根廷</strong>，<br>
            請再次猜測您認為這張照片最可能拍攝的地點
          </p>
        </div>
    <div class=""progress-wrap"">
      <div class=""progress-label"">第 1 段&emsp;10 / 10</div>
      <div class=""progress-track"">
        <div class=""progress-fill"" style=""width:100%""></div>
      </div>
    </div>","2","page4","","","","","","","","","","","","","","","","","","","","","","","","","","","","","","","","","","","","","","","","","","","","","","","","","","","","","","","","","","","","","","","","","","","","","","","","","","","","","","","","","","","",""
"html-button-response","62","799119","0.0-62.0","P1779363471621_O9RUF9","867","
        <div style=""text-align:center;padding-bottom:60px;"">
          <img src=""final_stimfile/argentina_01_antigua_estacion_trelew_3.jpg"" class=""stim-trial"" alt=""刺激圖片"">
          <p style=""margin-top:14px;"">您剛才選擇的答案是 <strong>日本</strong>，請問您對此選項的信心如何？</p>
          <p style=""color:#888;font-size:13px;"">（1 分 = 非常沒信心；5 分 = 非常有信心）</p>
        </div>
    <div class=""progress-wrap"">
      <div class=""progress-label"">第 1 段&emsp;10 / 10</div>
      <div class=""progress-track"">
        <div class=""progress-fill"" style=""width:100%""></div>
      </div>
    </div>","2","trial","","","","","level3","2","0","2","10","10","argentina_01_antigua_estacion_trelew_3","阿根廷","日本","false","4","日本","false","3","10300","878","11277","867","","","","","","","","","","","","","","","","","","","","","","","","","","","","","","","","","","","","","","","","","","","","","","","","","","","","","","","","","","","","","",""
"html-button-response","63","828409","0.0-63.0","P1779363471621_O9RUF9","29284","
    <div class=""scale-wrap"">
      <div style=""text-align:center;margin-bottom:20px;"">
        <img src=""stimulus/level3.png""
             style=""width:80px;height:80px;object-fit:contain;border-radius:50%;""
             alt="""">
        <p style=""margin-top:10px;font-size:15px;"">以下請根據您和這位機器人互動的整體印象來回答</p>
      </div>

      
    <div class=""scale-row"">
      <span class=""scale-lbl left"">虛假的</span>
      <div class=""scale-radios"">
    <label>
      <input type=""radio"" name=""godspeed_1"" value=""1"">
      <span>1</span>
    </label>
    <label>
      <input type=""radio"" name=""godspeed_1"" value=""2"">
      <span>2</span>
    </label>
    <label>
      <input type=""radio"" name=""godspeed_1"" value=""3"">
      <span>3</span>
    </label>
    <label>
      <input type=""radio"" name=""godspeed_1"" value=""4"">
      <span>4</span>
    </label>
    <label>
      <input type=""radio"" name=""godspeed_1"" value=""5"">
      <span>5</span>
    </label></div>
      <span class=""scale-lbl right"">自然的</span>
    </div>
    <div class=""scale-row"">
      <span class=""scale-lbl left"">似機械的</span>
      <div class=""scale-radios"">
    <label>
      <input type=""radio"" name=""godspeed_2"" value=""1"">
      <span>1</span>
    </label>
    <label>
      <input type=""radio"" name=""godspeed_2"" value=""2"">
      <span>2</span>
    </label>
    <label>
      <input type=""radio"" name=""godspeed_2"" value=""3"">
      <span>3</span>
    </label>
    <label>
      <input type=""radio"" name=""godspeed_2"" value=""4"">
      <span>4</span>
    </label>
    <label>
      <input type=""radio"" name=""godspeed_2"" value=""5"">
      <span>5</span>
    </label></div>
      <span class=""scale-lbl right"">似人類的</span>
    </div>
    <div class=""scale-row"">
      <span class=""scale-lbl left"">無意識的</span>
      <div class=""scale-radios"">
    <label>
      <input type=""radio"" name=""godspeed_3"" value=""1"">
      <span>1</span>
    </label>
    <label>
      <input type=""radio"" name=""godspeed_3"" value=""2"">
      <span>2</span>
    </label>
    <label>
      <input type=""radio"" name=""godspeed_3"" value=""3"">
      <span>3</span>
    </label>
    <label>
      <input type=""radio"" name=""godspeed_3"" value=""4"">
      <span>4</span>
    </label>
    <label>
      <input type=""radio"" name=""godspeed_3"" value=""5"">
      <span>5</span>
    </label></div>
      <span class=""scale-lbl right"">有意識的</span>
    </div>
    <div class=""scale-row"">
      <span class=""scale-lbl left"">人工的</span>
      <div class=""scale-radios"">
    <label>
      <input type=""radio"" name=""godspeed_4"" value=""1"">
      <span>1</span>
    </label>
    <label>
      <input type=""radio"" name=""godspeed_4"" value=""2"">
      <span>2</span>
    </label>
    <label>
      <input type=""radio"" name=""godspeed_4"" value=""3"">
      <span>3</span>
    </label>
    <label>
      <input type=""radio"" name=""godspeed_4"" value=""4"">
      <span>4</span>
    </label>
    <label>
      <input type=""radio"" name=""godspeed_4"" value=""5"">
      <span>5</span>
    </label></div>
      <span class=""scale-lbl right"">逼真的</span>
    </div>
    <div class=""scale-row"">
      <span class=""scale-lbl left"">不喜歡</span>
      <div class=""scale-radios"">
    <label>
      <input type=""radio"" name=""godspeed_5"" value=""1"">
      <span>1</span>
    </label>
    <label>
      <input type=""radio"" name=""godspeed_5"" value=""2"">
      <span>2</span>
    </label>
    <label>
      <input type=""radio"" name=""godspeed_5"" value=""3"">
      <span>3</span>
    </label>
    <label>
      <input type=""radio"" name=""godspeed_5"" value=""4"">
      <span>4</span>
    </label>
    <label>
      <input type=""radio"" name=""godspeed_5"" value=""5"">
      <span>5</span>
    </label></div>
      <span class=""scale-lbl right"">喜歡</span>
    </div>

      <div style=""border-top:1px solid #ddd;margin:14px 0;""></div>

      
    <div class=""scale-row"">
      <span class=""scale-lbl left"">不友好的</span>
      <div class=""scale-radios"">
    <label>
      <input type=""radio"" name=""godspeed_6"" value=""1"">
      <span>1</span>
    </label>
    <label>
      <input type=""radio"" name=""godspeed_6"" value=""2"">
      <span>2</span>
    </label>
    <label>
      <input type=""radio"" name=""godspeed_6"" value=""3"">
      <span>3</span>
    </label>
    <label>
      <input type=""radio"" name=""godspeed_6"" value=""4"">
      <span>4</span>
    </label>
    <label>
      <input type=""radio"" name=""godspeed_6"" value=""5"">
      <span>5</span>
    </label></div>
      <span class=""scale-lbl right"">友好的</span>
    </div>
    <div class=""scale-row"">
      <span class=""scale-lbl left"">不親切的</span>
      <div class=""scale-radios"">
    <label>
      <input type=""radio"" name=""godspeed_7"" value=""1"">
      <span>1</span>
    </label>
    <label>
      <input type=""radio"" name=""godspeed_7"" value=""2"">
      <span>2</span>
    </label>
    <label>
      <input type=""radio"" name=""godspeed_7"" value=""3"">
      <span>3</span>
    </label>
    <label>
      <input type=""radio"" name=""godspeed_7"" value=""4"">
      <span>4</span>
    </label>
    <label>
      <input type=""radio"" name=""godspeed_7"" value=""5"">
      <span>5</span>
    </label></div>
      <span class=""scale-lbl right"">親切的</span>
    </div>
    <div class=""scale-row"">
      <span class=""scale-lbl left"">不愉快的</span>
      <div class=""scale-radios"">
    <label>
      <input type=""radio"" name=""godspeed_8"" value=""1"">
      <span>1</span>
    </label>
    <label>
      <input type=""radio"" name=""godspeed_8"" value=""2"">
      <span>2</span>
    </label>
    <label>
      <input type=""radio"" name=""godspeed_8"" value=""3"">
      <span>3</span>
    </label>
    <label>
      <input type=""radio"" name=""godspeed_8"" value=""4"">
      <span>4</span>
    </label>
    <label>
      <input type=""radio"" name=""godspeed_8"" value=""5"">
      <span>5</span>
    </label></div>
      <span class=""scale-lbl right"">愉快的</span>
    </div>
    <div class=""scale-row"">
      <span class=""scale-lbl left"">惡劣的</span>
      <div class=""scale-radios"">
    <label>
      <input type=""radio"" name=""godspeed_9"" value=""1"">
      <span>1</span>
    </label>
    <label>
      <input type=""radio"" name=""godspeed_9"" value=""2"">
      <span>2</span>
    </label>
    <label>
      <input type=""radio"" name=""godspeed_9"" value=""3"">
      <span>3</span>
    </label>
    <label>
      <input type=""radio"" name=""godspeed_9"" value=""4"">
      <span>4</span>
    </label>
    <label>
      <input type=""radio"" name=""godspeed_9"" value=""5"">
      <span>5</span>
    </label></div>
      <span class=""scale-lbl right"">良好的</span>
    </div>

      <div style=""border-top:1px solid #ddd;margin:14px 0;""></div>

      <p style=""font-size:14px;color:#555;margin:6px 0 10px;"">
        整體而言，請問您有多相信本輪機器人所提供的答案？
      </p>
      
    <div class=""scale-row"">
      <span class=""scale-lbl left"">非常不相信</span>
      <div class=""scale-radios"">
    <label>
      <input type=""radio"" name=""trust"" value=""1"">
      <span>1</span>
    </label>
    <label>
      <input type=""radio"" name=""trust"" value=""2"">
      <span>2</span>
    </label>
    <label>
      <input type=""radio"" name=""trust"" value=""3"">
      <span>3</span>
    </label>
    <label>
      <input type=""radio"" name=""trust"" value=""4"">
      <span>4</span>
    </label>
    <label>
      <input type=""radio"" name=""trust"" value=""5"">
      <span>5</span>
    </label></div>
      <span class=""scale-lbl right"">非常相信</span>
    </div>

      <div id=""scale-error"">請回答所有題目後再送出</div>
    </div>","0","scale","","","","","level3","2","0","2","","","","","","","","","","","","","","","4","4","3","3","4","4","4","4","4","3","","","","","","","","","","","","","","","","","","","","","","","","","","","","","","","","","","","","","","","","","","","","","","","","","","","",""
"html-button-response","64","829673","0.0-64.0","P1779363471621_O9RUF9","1262","
      <div class=""page-wrap"">
        <h2>第 2 / 4 段</h2>
        <p style=""font-size:18px;color:#555;"">休息一下，準備好後請按「下一頁」繼續</p>
      </div>","0","rest","","","","","","","","","","","","","","","","","","","","","","","","","","","","","","","","","","","","","","","","","","","","","","","","","","","","","","","","","","","","","","","","","","","","","","","","","","","","","","","","","","","",""
"html-button-response","65","835662","0.0-65.0","P1779363471621_O9RUF9","5987","
      <div class=""page-wrap"">
        <p style=""font-size:18px;"">接下來您將與以下機器人進行對話</p>
        <img src=""stimulus/level1.png""
             class=""robot-intro-img"" alt=""機器人頭像"">
        <p style=""font-size:14px;color:#888;margin-top:14px;"">請等待五秒後，點按下一頁</p>
      </div>","0","robot_intro","","","","","level1","","","","","","","","","","","","","","","","","","","","","","","","","","","","","","","","","","","","","","","","","","","","","","","","","","","","","","","","","","","","","","","","","","","","","","","","","","","","","","",""
"html-button-response","66","840146","0.0-66.0","P1779363471621_O9RUF9","4483","
      <div style=""text-align:center;padding-bottom:60px;"">
        <img src=""final_stimfile/canada_banff_nationalpark.jpg"" class=""stim-trial"" alt=""刺激圖片"">
        <p style=""margin-top:14px;"">請猜測您認為這張照片最可能拍攝的地點</p>
      </div>
    <div class=""progress-wrap"">
      <div class=""progress-label"">第 2 段&emsp;1 / 10</div>
      <div class=""progress-track"">
        <div class=""progress-fill"" style=""width:10%""></div>
      </div>
    </div>","1","page1","","","","","","","","","","","","","","","","","","","","","","","","","","","","","","","","","","","","","","","","","","","","","","","","","","","","","","","","","","","","","","","","","","","","","","","","","","","","","","","","","","","",""
"html-button-response","67","841014","0.0-67.0","P1779363471621_O9RUF9","867","
        <div style=""text-align:center;padding-bottom:60px;"">
          <img src=""final_stimfile/canada_banff_nationalpark.jpg"" class=""stim-trial"" alt=""刺激圖片"">
          <p style=""margin-top:14px;"">您剛才選擇的答案是 <strong>挪威</strong>，請問您對此選項的信心如何？</p>
          <p style=""color:#888;font-size:13px;"">（1 分 = 非常沒信心；5 分 = 非常有信心）</p>
        </div>
    <div class=""progress-wrap"">
      <div class=""progress-label"">第 2 段&emsp;1 / 10</div>
      <div class=""progress-track"">
        <div class=""progress-fill"" style=""width:10%""></div>
      </div>
    </div>","3","page2","","","","","","","","","","","","","","","","","","","","","","","","","","","","","","","","","","","","","","","","","","","","","","","","","","","","","","","","","","","","","","","","","","","","","","","","","","","","","","","","","","","",""
"html-button-response","68","853066","0.0-68.0","P1779363471621_O9RUF9","12049","
      <div style=""display:flex;height:calc(100vh - 130px);min-height:400px;"">

        <!-- ── Left 50 %: stimulus image ── -->
        <div style=""flex:0 0 50%;display:flex;align-items:center;justify-content:center;padding:28px 16px 28px 28px;"">
          <img src=""final_stimfile/canada_banff_nationalpark.jpg""
               style=""max-width:100%;max-height:100%;object-fit:contain;border-radius:6px;""
               alt=""刺激圖片"">
        </div>

        <!-- ── Right 50 %: top (avatar) + bottom (chat) ── -->
        <div style=""flex:1;display:flex;flex-direction:column;padding:16px 28px 16px 16px;min-width:0;"">

          <!-- Top 40 %: robot avatar, centred -->
          <div style=""flex:0 0 40%;display:flex;flex-direction:column;align-items:center;justify-content:center;gap:10px;"">
            <img src=""stimulus/level1.png""
                 style=""width:120px;height:120px;object-fit:contain;border-radius:50%;""
                 alt="""">
            <span style=""font-size:14px;color:#555;"">機器人 B</span>
          </div>

          <!-- Bottom 60 %: chat messages -->
          <div style=""flex:1;overflow-y:auto;padding-top:6px;"">
            <div class=""chat-messages"" id=""chat-msg-area""></div>
          </div>

        </div>
      </div>
    <div class=""progress-wrap"">
      <div class=""progress-label"">第 2 段&emsp;1 / 10</div>
      <div class=""progress-track"">
        <div class=""progress-fill"" style=""width:10%""></div>
      </div>
    </div>","0","page3","","","","","","","","","","","","","","","","","","","","","","","","","","","","","","","","","","","","","","","","","","","","","","","","","","","","","","","","","","","","","","","","","","","","","","","","","","","","","","","","","","","",""
"html-button-response","69","855149","0.0-69.0","P1779363471621_O9RUF9","2079","
        <div style=""text-align:center;padding-bottom:60px;"">
          <img src=""final_stimfile/canada_banff_nationalpark.jpg"" class=""stim-trial"" alt=""刺激圖片"">
          <p style=""margin-top:14px;"">
            您上次選擇的是 <strong>挪威</strong>，
            機器人認為這裡是 <strong>加拿大</strong>，<br>
            請再次猜測您認為這張照片最可能拍攝的地點
          </p>
        </div>
    <div class=""progress-wrap"">
      <div class=""progress-label"">第 2 段&emsp;1 / 10</div>
      <div class=""progress-track"">
        <div class=""progress-fill"" style=""width:10%""></div>
      </div>
    </div>","0","page4","","","","","","","","","","","","","","","","","","","","","","","","","","","","","","","","","","","","","","","","","","","","","","","","","","","","","","","","","","","","","","","","","","","","","","","","","","","","","","","","","","","",""
"html-button-response","70","856112","0.0-70.0","P1779363471621_O9RUF9","961","
        <div style=""text-align:center;padding-bottom:60px;"">
          <img src=""final_stimfile/canada_banff_nationalpark.jpg"" class=""stim-trial"" alt=""刺激圖片"">
          <p style=""margin-top:14px;"">您剛才選擇的答案是 <strong>加拿大</strong>，請問您對此選項的信心如何？</p>
          <p style=""color:#888;font-size:13px;"">（1 分 = 非常沒信心；5 分 = 非常有信心）</p>
        </div>
    <div class=""progress-wrap"">
      <div class=""progress-label"">第 2 段&emsp;1 / 10</div>
      <div class=""progress-track"">
        <div class=""progress-fill"" style=""width:10%""></div>
      </div>
    </div>","3","trial","","","","","level1","2","1","3","1","11","canada_banff_nationalpark","加拿大","挪威","false","4","加拿大","true","4","4483","2079","12049","961","","","","","","","","","","","","","","","","","","","","","","","","","","","","","","","","","","","","","","","","","","","","","","","","","","","","","","","","","","","","","",""
"html-button-response","71","888443","0.0-71.0","P1779363471621_O9RUF9","32330","
      <div style=""text-align:center;padding-bottom:60px;"">
        <img src=""final_stimfile/greek_meteora.jpg"" class=""stim-trial"" alt=""刺激圖片"">
        <p style=""margin-top:14px;"">請猜測您認為這張照片最可能拍攝的地點</p>
      </div>
    <div class=""progress-wrap"">
      <div class=""progress-label"">第 2 段&emsp;2 / 10</div>
      <div class=""progress-track"">
        <div class=""progress-fill"" style=""width:20%""></div>
      </div>
    </div>","3","page1","","","","","","","","","","","","","","","","","","","","","","","","","","","","","","","","","","","","","","","","","","","","","","","","","","","","","","","","","","","","","","","","","","","","","","","","","","","","","","","","","","","",""
"html-button-response","72","889350","0.0-72.0","P1779363471621_O9RUF9","904","
        <div style=""text-align:center;padding-bottom:60px;"">
          <img src=""final_stimfile/greek_meteora.jpg"" class=""stim-trial"" alt=""刺激圖片"">
          <p style=""margin-top:14px;"">您剛才選擇的答案是 <strong>阿根廷</strong>，請問您對此選項的信心如何？</p>
          <p style=""color:#888;font-size:13px;"">（1 分 = 非常沒信心；5 分 = 非常有信心）</p>
        </div>
    <div class=""progress-wrap"">
      <div class=""progress-label"">第 2 段&emsp;2 / 10</div>
      <div class=""progress-track"">
        <div class=""progress-fill"" style=""width:20%""></div>
      </div>
    </div>","3","page2","","","","","","","","","","","","","","","","","","","","","","","","","","","","","","","","","","","","","","","","","","","","","","","","","","","","","","","","","","","","","","","","","","","","","","","","","","","","","","","","","","","",""
"html-button-response","73","902604","0.0-73.0","P1779363471621_O9RUF9","13249","
      <div style=""display:flex;height:calc(100vh - 130px);min-height:400px;"">

        <!-- ── Left 50 %: stimulus image ── -->
        <div style=""flex:0 0 50%;display:flex;align-items:center;justify-content:center;padding:28px 16px 28px 28px;"">
          <img src=""final_stimfile/greek_meteora.jpg""
               style=""max-width:100%;max-height:100%;object-fit:contain;border-radius:6px;""
               alt=""刺激圖片"">
        </div>

        <!-- ── Right 50 %: top (avatar) + bottom (chat) ── -->
        <div style=""flex:1;display:flex;flex-direction:column;padding:16px 28px 16px 16px;min-width:0;"">

          <!-- Top 40 %: robot avatar, centred -->
          <div style=""flex:0 0 40%;display:flex;flex-direction:column;align-items:center;justify-content:center;gap:10px;"">
            <img src=""stimulus/level1.png""
                 style=""width:120px;height:120px;object-fit:contain;border-radius:50%;""
                 alt="""">
            <span style=""font-size:14px;color:#555;"">機器人 B</span>
          </div>

          <!-- Bottom 60 %: chat messages -->
          <div style=""flex:1;overflow-y:auto;padding-top:6px;"">
            <div class=""chat-messages"" id=""chat-msg-area""></div>
          </div>

        </div>
      </div>
    <div class=""progress-wrap"">
      <div class=""progress-label"">第 2 段&emsp;2 / 10</div>
      <div class=""progress-track"">
        <div class=""progress-fill"" style=""width:20%""></div>
      </div>
    </div>","0","page3","","","","","","","","","","","","","","","","","","","","","","","","","","","","","","","","","","","","","","","","","","","","","","","","","","","","","","","","","","","","","","","","","","","","","","","","","","","","","","","","","","","",""
"html-button-response","74","904277","0.0-74.0","P1779363471621_O9RUF9","1671","
        <div style=""text-align:center;padding-bottom:60px;"">
          <img src=""final_stimfile/greek_meteora.jpg"" class=""stim-trial"" alt=""刺激圖片"">
          <p style=""margin-top:14px;"">
            您上次選擇的是 <strong>阿根廷</strong>，
            機器人認為這裡是 <strong>希臘</strong>，<br>
            請再次猜測您認為這張照片最可能拍攝的地點
          </p>
        </div>
    <div class=""progress-wrap"">
      <div class=""progress-label"">第 2 段&emsp;2 / 10</div>
      <div class=""progress-track"">
        <div class=""progress-fill"" style=""width:20%""></div>
      </div>
    </div>","0","page4","","","","","","","","","","","","","","","","","","","","","","","","","","","","","","","","","","","","","","","","","","","","","","","","","","","","","","","","","","","","","","","","","","","","","","","","","","","","","","","","","","","",""
"html-button-response","75","905191","0.0-75.0","P1779363471621_O9RUF9","912","
        <div style=""text-align:center;padding-bottom:60px;"">
          <img src=""final_stimfile/greek_meteora.jpg"" class=""stim-trial"" alt=""刺激圖片"">
          <p style=""margin-top:14px;"">您剛才選擇的答案是 <strong>希臘</strong>，請問您對此選項的信心如何？</p>
          <p style=""color:#888;font-size:13px;"">（1 分 = 非常沒信心；5 分 = 非常有信心）</p>
        </div>
    <div class=""progress-wrap"">
      <div class=""progress-label"">第 2 段&emsp;2 / 10</div>
      <div class=""progress-track"">
        <div class=""progress-fill"" style=""width:20%""></div>
      </div>
    </div>","3","trial","","","","","level1","2","1","3","2","12","greek_meteora","希臘","阿根廷","false","4","希臘","true","4","32330","1671","13249","912","","","","","","","","","","","","","","","","","","","","","","","","","","","","","","","","","","","","","","","","","","","","","","","","","","","","","","","","","","","","","",""
"html-button-response","76","917700","0.0-76.0","P1779363471621_O9RUF9","12508","
      <div style=""text-align:center;padding-bottom:60px;"">
        <img src=""final_stimfile/morocco_marrakech_souk.jpg"" class=""stim-trial"" alt=""刺激圖片"">
        <p style=""margin-top:14px;"">請猜測您認為這張照片最可能拍攝的地點</p>
      </div>
    <div class=""progress-wrap"">
      <div class=""progress-label"">第 2 段&emsp;3 / 10</div>
      <div class=""progress-track"">
        <div class=""progress-fill"" style=""width:30%""></div>
      </div>
    </div>","0","page1","","","","","","","","","","","","","","","","","","","","","","","","","","","","","","","","","","","","","","","","","","","","","","","","","","","","","","","","","","","","","","","","","","","","","","","","","","","","","","","","","","","",""
"html-button-response","77","918590","0.0-77.0","P1779363471621_O9RUF9","888","
        <div style=""text-align:center;padding-bottom:60px;"">
          <img src=""final_stimfile/morocco_marrakech_souk.jpg"" class=""stim-trial"" alt=""刺激圖片"">
          <p style=""margin-top:14px;"">您剛才選擇的答案是 <strong>摩洛哥</strong>，請問您對此選項的信心如何？</p>
          <p style=""color:#888;font-size:13px;"">（1 分 = 非常沒信心；5 分 = 非常有信心）</p>
        </div>
    <div class=""progress-wrap"">
      <div class=""progress-label"">第 2 段&emsp;3 / 10</div>
      <div class=""progress-track"">
        <div class=""progress-fill"" style=""width:30%""></div>
      </div>
    </div>","3","page2","","","","","","","","","","","","","","","","","","","","","","","","","","","","","","","","","","","","","","","","","","","","","","","","","","","","","","","","","","","","","","","","","","","","","","","","","","","","","","","","","","","",""
"html-button-response","78","931217","0.0-78.0","P1779363471621_O9RUF9","12625","
      <div style=""display:flex;height:calc(100vh - 130px);min-height:400px;"">

        <!-- ── Left 50 %: stimulus image ── -->
        <div style=""flex:0 0 50%;display:flex;align-items:center;justify-content:center;padding:28px 16px 28px 28px;"">
          <img src=""final_stimfile/morocco_marrakech_souk.jpg""
               style=""max-width:100%;max-height:100%;object-fit:contain;border-radius:6px;""
               alt=""刺激圖片"">
        </div>

        <!-- ── Right 50 %: top (avatar) + bottom (chat) ── -->
        <div style=""flex:1;display:flex;flex-direction:column;padding:16px 28px 16px 16px;min-width:0;"">

          <!-- Top 40 %: robot avatar, centred -->
          <div style=""flex:0 0 40%;display:flex;flex-direction:column;align-items:center;justify-content:center;gap:10px;"">
            <img src=""stimulus/level1.png""
                 style=""width:120px;height:120px;object-fit:contain;border-radius:50%;""
                 alt="""">
            <span style=""font-size:14px;color:#555;"">機器人 B</span>
          </div>

          <!-- Bottom 60 %: chat messages -->
          <div style=""flex:1;overflow-y:auto;padding-top:6px;"">
            <div class=""chat-messages"" id=""chat-msg-area""></div>
          </div>

        </div>
      </div>
    <div class=""progress-wrap"">
      <div class=""progress-label"">第 2 段&emsp;3 / 10</div>
      <div class=""progress-track"">
        <div class=""progress-fill"" style=""width:30%""></div>
      </div>
    </div>","0","page3","","","","","","","","","","","","","","","","","","","","","","","","","","","","","","","","","","","","","","","","","","","","","","","","","","","","","","","","","","","","","","","","","","","","","","","","","","","","","","","","","","","",""
"html-button-response","79","932842","0.0-79.0","P1779363471621_O9RUF9","1623","
        <div style=""text-align:center;padding-bottom:60px;"">
          <img src=""final_stimfile/morocco_marrakech_souk.jpg"" class=""stim-trial"" alt=""刺激圖片"">
          <p style=""margin-top:14px;"">
            您上次選擇的是 <strong>摩洛哥</strong>，
            機器人認為這裡是 <strong>摩洛哥</strong>，<br>
            請再次猜測您認為這張照片最可能拍攝的地點
          </p>
        </div>
    <div class=""progress-wrap"">
      <div class=""progress-label"">第 2 段&emsp;3 / 10</div>
      <div class=""progress-track"">
        <div class=""progress-fill"" style=""width:30%""></div>
      </div>
    </div>","0","page4","","","","","","","","","","","","","","","","","","","","","","","","","","","","","","","","","","","","","","","","","","","","","","","","","","","","","","","","","","","","","","","","","","","","","","","","","","","","","","","","","","","",""
"html-button-response","80","933774","0.0-80.0","P1779363471621_O9RUF9","930","
        <div style=""text-align:center;padding-bottom:60px;"">
          <img src=""final_stimfile/morocco_marrakech_souk.jpg"" class=""stim-trial"" alt=""刺激圖片"">
          <p style=""margin-top:14px;"">您剛才選擇的答案是 <strong>摩洛哥</strong>，請問您對此選項的信心如何？</p>
          <p style=""color:#888;font-size:13px;"">（1 分 = 非常沒信心；5 分 = 非常有信心）</p>
        </div>
    <div class=""progress-wrap"">
      <div class=""progress-label"">第 2 段&emsp;3 / 10</div>
      <div class=""progress-track"">
        <div class=""progress-fill"" style=""width:30%""></div>
      </div>
    </div>","3","trial","","","","","level1","2","1","3","3","13","morocco_marrakech_souk","摩洛哥","摩洛哥","true","4","摩洛哥","true","4","12508","1623","12625","930","","","","","","","","","","","","","","","","","","","","","","","","","","","","","","","","","","","","","","","","","","","","","","","","","","","","","","","","","","","","","",""
"html-button-response","81","948739","0.0-81.0","P1779363471621_O9RUF9","14964","
      <div style=""text-align:center;padding-bottom:60px;"">
        <img src=""final_stimfile/romania_04_muzeul_memorial_ady_endre_-_panoramio.jpg"" class=""stim-trial"" alt=""刺激圖片"">
        <p style=""margin-top:14px;"">請猜測您認為這張照片最可能拍攝的地點</p>
      </div>
    <div class=""progress-wrap"">
      <div class=""progress-label"">第 2 段&emsp;4 / 10</div>
      <div class=""progress-track"">
        <div class=""progress-fill"" style=""width:40%""></div>
      </div>
    </div>","3","page1","","","","","","","","","","","","","","","","","","","","","","","","","","","","","","","","","","","","","","","","","","","","","","","","","","","","","","","","","","","","","","","","","","","","","","","","","","","","","","","","","","","",""
"html-button-response","82","949708","0.0-82.0","P1779363471621_O9RUF9","966","
        <div style=""text-align:center;padding-bottom:60px;"">
          <img src=""final_stimfile/romania_04_muzeul_memorial_ady_endre_-_panoramio.jpg"" class=""stim-trial"" alt=""刺激圖片"">
          <p style=""margin-top:14px;"">您剛才選擇的答案是 <strong>南非</strong>，請問您對此選項的信心如何？</p>
          <p style=""color:#888;font-size:13px;"">（1 分 = 非常沒信心；5 分 = 非常有信心）</p>
        </div>
    <div class=""progress-wrap"">
      <div class=""progress-label"">第 2 段&emsp;4 / 10</div>
      <div class=""progress-track"">
        <div class=""progress-fill"" style=""width:40%""></div>
      </div>
    </div>","3","page2","","","","","","","","","","","","","","","","","","","","","","","","","","","","","","","","","","","","","","","","","","","","","","","","","","","","","","","","","","","","","","","","","","","","","","","","","","","","","","","","","","","",""
"html-button-response","83","962211","0.0-83.0","P1779363471621_O9RUF9","12502","
      <div style=""display:flex;height:calc(100vh - 130px);min-height:400px;"">

        <!-- ── Left 50 %: stimulus image ── -->
        <div style=""flex:0 0 50%;display:flex;align-items:center;justify-content:center;padding:28px 16px 28px 28px;"">
          <img src=""final_stimfile/romania_04_muzeul_memorial_ady_endre_-_panoramio.jpg""
               style=""max-width:100%;max-height:100%;object-fit:contain;border-radius:6px;""
               alt=""刺激圖片"">
        </div>

        <!-- ── Right 50 %: top (avatar) + bottom (chat) ── -->
        <div style=""flex:1;display:flex;flex-direction:column;padding:16px 28px 16px 16px;min-width:0;"">

          <!-- Top 40 %: robot avatar, centred -->
          <div style=""flex:0 0 40%;display:flex;flex-direction:column;align-items:center;justify-content:center;gap:10px;"">
            <img src=""stimulus/level1.png""
                 style=""width:120px;height:120px;object-fit:contain;border-radius:50%;""
                 alt="""">
            <span style=""font-size:14px;color:#555;"">機器人 B</span>
          </div>

          <!-- Bottom 60 %: chat messages -->
          <div style=""flex:1;overflow-y:auto;padding-top:6px;"">
            <div class=""chat-messages"" id=""chat-msg-area""></div>
          </div>

        </div>
      </div>
    <div class=""progress-wrap"">
      <div class=""progress-label"">第 2 段&emsp;4 / 10</div>
      <div class=""progress-track"">
        <div class=""progress-fill"" style=""width:40%""></div>
      </div>
    </div>","0","page3","","","","","","","","","","","","","","","","","","","","","","","","","","","","","","","","","","","","","","","","","","","","","","","","","","","","","","","","","","","","","","","","","","","","","","","","","","","","","","","","","","","",""
"html-button-response","84","964291","0.0-84.0","P1779363471621_O9RUF9","2078","
        <div style=""text-align:center;padding-bottom:60px;"">
          <img src=""final_stimfile/romania_04_muzeul_memorial_ady_endre_-_panoramio.jpg"" class=""stim-trial"" alt=""刺激圖片"">
          <p style=""margin-top:14px;"">
            您上次選擇的是 <strong>南非</strong>，
            機器人認為這裡是 <strong>羅馬尼亞</strong>，<br>
            請再次猜測您認為這張照片最可能拍攝的地點
          </p>
        </div>
    <div class=""progress-wrap"">
      <div class=""progress-label"">第 2 段&emsp;4 / 10</div>
      <div class=""progress-track"">
        <div class=""progress-fill"" style=""width:40%""></div>
      </div>
