"trial_type","trial_index","time_elapsed","internal_node_id","participant_id","rt","stimulus","response","data_type","consented","demo_name","demo_gender","demo_age","robot_avatar","condition_index","robot_index","robot_style","trial_number","global_trial_number","stim_file","correct_answer","guess_1","guess_1_correct","guess_1_confidence","guess_2","guess_2_correct","guess_2_confidence","guess_1_rt","guess_2_rt","chatroom_rt","guess_2_confidence_rt","godspeed_1","godspeed_2","godspeed_3","godspeed_4","godspeed_5","godspeed_6","godspeed_7","godspeed_8","godspeed_9","trust","mai_1","mai_2","mai_3","mai_4","mai_5","mai_6","mai_7","mai_8","mai_9","mai_10","mai_11","mai_12","mai_13","mai_14","mai_15","mai_16","mai_17","mai_18","mai_19","mai_20","mai_21","mai_22","mai_23","mai_24","mai_25","mai_26","mai_27","mai_28","mai_29","mai_30","mai_31","mai_32","mai_33","mai_34","mai_35","mai_36","mai_37","mai_38","mai_39","mai_40","mai_41","mai_42","mai_43","mai_44","mai_45","mai_46","mai_47","mai_48","mai_49","mai_50","mai_51","mai_52"
"pavlovia","0","2483","0.0-0.0","P1779350645110_OHY56M","","","","","","","","","","","","","","","","","","","","","","","","","","","","","","","","","","","","","","","","","","","","","","","","","","","","","","","","","","","","","","","","","","","","","","","","","","","","","","","","","","","","","","","",""
"html-button-response","1","10090","0.0-1.0","P1779350645110_OHY56M","7603","
      <div style=""max-width:680px;margin:0 auto;padding:30px 20px;line-height:1.9;font-size:15px;"">
        <h2 style=""margin-bottom:24px;"">歡迎參加本實驗！</h2>
        <p>本實驗旨在了解對地景的判斷，及與機器人共同完成作業的決策歷程。本實驗包含三個部分：<br>
        （一）個人資料填答<br>
        （二）猜測地景拍攝地點的主要實驗<br>
        （三）後測問卷</p>
        <p style=""color:#c0392b;"">注意，本實驗無回上一頁選項，在實驗各階段，皆請務必確認答案再進入下一頁。</p>
        <p>以上資訊若有問題請來信聯絡實驗聯絡人，若確認了解並同意以上資訊，請勾選同意，並按確認鍵開始填答基本資料。</p>
        <label style=""display:flex;align-items:center;justify-content:center;gap:10px;margin-top:20px;font-size:15px;cursor:pointer;"">
          <input type=""checkbox"" id=""consent-check"" style=""width:20px;height:20px;cursor:pointer;"">
          我同意參與本實驗
        </label>
      </div>","0","consent","true","","","","","","","","","","","","","","","","","","","","","","","","","","","","","","","","","","","","","","","","","","","","","","","","","","","","","","","","","","","","","","","","","","","","","","","","","","","","","","","","","","",""
"html-button-response","2","20594","0.0-2.0","P1779350645110_OHY56M","10500","
      <div style=""max-width:680px;margin:0 auto;padding:30px 20px;line-height:1.9;font-size:15px;"">
        <h3 style=""font-weight:bold;margin-bottom:24px;"">第一部分：個人資料</h3>
        <div style=""display:flex;align-items:center;gap:14px;margin:14px 0;"">
          <label style=""min-width:140px;font-size:15px;""><strong>您的姓名（選填）：</strong></label>
          <input type=""text"" id=""demo-name"" placeholder=""請輸入""
            style=""width:260px;padding:6px 10px;font-size:15px;border:0;border-bottom:1px solid #999;outline:none;background:transparent;"">
        </div>
        <div style=""display:flex;align-items:center;gap:14px;margin:14px 0;"">
          <label style=""min-width:140px;font-size:15px;""><strong>性別（必填）：</strong></label>
          <div style=""display:flex;gap:20px;"">
            <label style=""cursor:pointer;white-space:nowrap;""><input type=""radio"" name=""demo-gender"" value=""生理女""> 生理女</label>
            <label style=""cursor:pointer;white-space:nowrap;""><input type=""radio"" name=""demo-gender"" value=""生理男""> 生理男</label>
            <label style=""cursor:pointer;white-space:nowrap;""><input type=""radio"" name=""demo-gender"" value=""不願透露""> 不願透露</label>
          </div>
        </div>
        <div style=""display:flex;align-items:center;gap:14px;margin:14px 0;"">
          <label style=""min-width:140px;font-size:15px;""><strong>年齡（必填）：</strong></label>
          <input type=""number"" id=""demo-age"" min=""1"" max=""120"" step=""1"" placeholder=""請輸入""
            style=""width:100px;padding:6px 10px;font-size:15px;border:0;border-bottom:1px solid #999;outline:none;background:transparent;"">
          <span id=""age-error"" style=""color:#c0392b;font-size:13px;margin-left:8px;display:none;"">請輸入正整數</span>
        </div>
      </div>","0","demographics","","楊健群","生理男","31","","","","","","","","","","","","","","","","","","","","","","","","","","","","","","","","","","","","","","","","","","","","","","","","","","","","","","","","","","","","","","","","","","","","","","","","","","","","","","","",""
"html-button-response","3","25073","0.0-3.0","P1779350645110_OHY56M","4478","
      <div style=""max-width:680px;margin:0 auto;padding:30px 20px;line-height:1.9;font-size:15px;"">
        <h3 style=""font-weight:bold;margin-bottom:16px;"">第二部分：正式實驗</h3>
        <p>在本部分的實驗中，您需要觀看一些地景照片，並從四個選項中選擇您認為正確的拍攝地點，之後選擇您對該猜測的信心程度，確定您的選擇後，請按確認進入下一頁。</p>
        <p>了解以上資訊後，請按確認鍵開始練習以上部分的實驗。</p>
      </div>","0","instruction","","","","","","","","","","","","","","","","","","","","","","","","","","","","","","","","","","","","","","","","","","","","","","","","","","","","","","","","","","","","","","","","","","","","","","","","","","","","","","","","","","","",""
"html-button-response","4","53753","0.0-4.0","P1779350645110_OHY56M","28678","
      <div style=""text-align:center;padding-bottom:60px;"">
        <img src=""final_stimfile/arabia_sheikh_zayed_palace.jpg"" class=""stim-trial"" alt=""練習圖片"">
        <p style=""margin-top:14px;"">請猜測您認為這張照片最可能拍攝的地點</p>
      </div>","1","practice","","","","","","","","","","","","","","","","","","","","","","","","","","","","","","","","","","","","","","","","","","","","","","","","","","","","","","","","","","","","","","","","","","","","","","","","","","","","","","","","","","","",""
"html-button-response","5","57113","0.0-5.0","P1779350645110_OHY56M","3358","
        <div style=""text-align:center;padding-bottom:60px;"">
          <img src=""final_stimfile/arabia_sheikh_zayed_palace.jpg"" class=""stim-trial"" alt=""練習圖片"">
          <p style=""margin-top:14px;"">您剛才選擇的答案是 <strong>摩洛哥</strong>，請問您對此選項的信心如何？</p>
          <p style=""color:#888;font-size:13px;"">（1 分 = 非常沒信心；5 分 = 非常有信心）</p>
        </div>","2","practice","","","","","","","","","","","","","","","","","","","","","","","","","","","","","","","","","","","","","","","","","","","","","","","","","","","","","","","","","","","","","","","","","","","","","","","","","","","","","","","","","","","",""
"html-button-response","6","62377","0.0-6.0","P1779350645110_OHY56M","5263","
      <div style=""max-width:680px;margin:0 auto;padding:30px 20px;line-height:1.9;font-size:15px;"">
        <p>每一題在您完成如先前頁面的選擇後，會展示一段機器人關於本題的作答想法。</p>
        <p style=""color:#c0392b;"">注意：本機器人訓練時模擬人類回應行為，因此答案未必完全正確，請務必仔細評估內容及答案之後再決定是否採用機器人答案。</p>
        <p>在觀看完機器人的作答想法後，會請您再次猜測本題答案，並評估您對答案的信心程度。</p>
        <p>了解以上資訊後，請按確認鍵開始練習以上部分的實驗。</p>
      </div>","0","instruction","","","","","","","","","","","","","","","","","","","","","","","","","","","","","","","","","","","","","","","","","","","","","","","","","","","","","","","","","","","","","","","","","","","","","","","","","","","","","","","","","","","",""
"html-button-response","7","77288","0.0-7.0","P1779350645110_OHY56M","14910","
      <div style=""display:flex;height:calc(100vh - 130px);min-height:400px;"">

        <!-- ── Left 50 %: stimulus image ── -->
        <div style=""flex:0 0 50%;display:flex;align-items:center;justify-content:center;padding:28px 16px 28px 28px;"">
          <img src=""final_stimfile/arabia_sheikh_zayed_palace.jpg""
               style=""max-width:100%;max-height:100%;object-fit:contain;border-radius:6px;""
               alt=""刺激圖片"">
        </div>

        <!-- ── Right 50 %: top (avatar) + bottom (chat) ── -->
        <div style=""flex:1;display:flex;flex-direction:column;padding:16px 28px 16px 16px;min-width:0;"">

          <!-- Top 40 %: robot avatar, centred -->
          <div style=""flex:0 0 40%;display:flex;flex-direction:column;align-items:center;justify-content:center;gap:10px;"">
            <img src=""stimulus/level1.png""
                 style=""width:120px;height:120px;object-fit:contain;border-radius:50%;""
                 alt="""">
            <span style=""font-size:14px;color:#555;"">練習機器人</span>
          </div>

          <!-- Bottom 60 %: chat messages -->
          <div style=""flex:1;overflow-y:auto;padding-top:6px;"">
            <div class=""chat-messages"" id=""chat-msg-area""></div>
          </div>

        </div>
      </div>","0","page3","","","","","","","","","","","","","","","","","","","","","","","","","","","","","","","","","","","","","","","","","","","","","","","","","","","","","","","","","","","","","","","","","","","","","","","","","","","","","","","","","","","",""
"html-button-response","8","144297","0.0-8.0","P1779350645110_OHY56M","67007","
        <div style=""text-align:center;padding-bottom:60px;"">
          <img src=""final_stimfile/arabia_sheikh_zayed_palace.jpg"" class=""stim-trial"" alt=""練習圖片"">
          <p style=""margin-top:14px;"">
            您上次選擇的是 <strong>摩洛哥</strong>，
            機器人認為這裡是 <strong>阿拉伯聯合大公國</strong>，<br>
            請再次猜測您認為這張照片最可能拍攝的地點
          </p>
        </div>","0","practice","","","","","","","","","","","","","","","","","","","","","","","","","","","","","","","","","","","","","","","","","","","","","","","","","","","","","","","","","","","","","","","","","","","","","","","","","","","","","","","","","","","",""
"html-button-response","9","146505","0.0-9.0","P1779350645110_OHY56M","2205","
        <div style=""text-align:center;padding-bottom:60px;"">
          <img src=""final_stimfile/arabia_sheikh_zayed_palace.jpg"" class=""stim-trial"" alt=""練習圖片"">
          <p style=""margin-top:14px;"">您剛才選擇的答案是 <strong>阿拉伯聯合大公國</strong>，請問您對此選項的信心如何？</p>
          <p style=""color:#888;font-size:13px;"">（1 分 = 非常沒信心；5 分 = 非常有信心）</p>
        </div>","3","practice","","","","","","","","","","","","","","","","","","","","","","","","","","","","","","","","","","","","","","","","","","","","","","","","","","","","","","","","","","","","","","","","","","","","","","","","","","","","","","","","","","","",""
"html-button-response","10","153715","0.0-10.0","P1779350645110_OHY56M","7207","
      <div style=""max-width:680px;margin:0 auto;padding:30px 20px;line-height:1.9;font-size:15px;"">
        <p style=""color:#c0392b;"">本實驗共有四輪，每輪有十五張圖。不同輪次之間，會由不同的機器人提供作答想法。</p>
        <p>每一輪於十五張圖片回答完成後，會請您評估一些關於本輪機器人的看法。</p>
        <p>若以上資訊有問題，可來信詢問實驗者，若無其他疑問，請按確認開始正式實驗。</p>
      </div>","0","instruction","","","","","","","","","","","","","","","","","","","","","","","","","","","","","","","","","","","","","","","","","","","","","","","","","","","","","","","","","","","","","","","","","","","","","","","","","","","","","","","","","","","",""
"html-button-response","11","155248","0.0-11.0","P1779350645110_OHY56M","1532","
      <div class=""page-wrap"">
        <h2>第 1 / 4 段</h2>
        <p style=""font-size:18px;color:#555;"">休息一下，準備好後請按「下一頁」繼續</p>
      </div>","0","rest","","","","","","","","","","","","","","","","","","","","","","","","","","","","","","","","","","","","","","","","","","","","","","","","","","","","","","","","","","","","","","","","","","","","","","","","","","","","","","","","","","","",""
"html-button-response","12","161688","0.0-12.0","P1779350645110_OHY56M","6439","
      <div class=""page-wrap"">
        <p style=""font-size:18px;"">接下來您將與以下機器人進行對話</p>
        <img src=""stimulus/level2.png""
             class=""robot-intro-img"" alt=""機器人頭像"">
        <p style=""font-size:14px;color:#888;margin-top:14px;"">請等待五秒後，點按下一頁</p>
      </div>","0","robot_intro","","","","","level2","","","","","","","","","","","","","","","","","","","","","","","","","","","","","","","","","","","","","","","","","","","","","","","","","","","","","","","","","","","","","","","","","","","","","","","","","","","","","","",""
"html-button-response","13","186016","0.0-13.0","P1779350645110_OHY56M","24325","
      <div style=""text-align:center;padding-bottom:60px;"">
        <img src=""final_stimfile/utzubek_registan_square.jpg"" class=""stim-trial"" alt=""刺激圖片"">
        <p style=""margin-top:14px;"">請猜測您認為這張照片最可能拍攝的地點</p>
      </div>
    <div class=""progress-wrap"">
      <div class=""progress-label"">第 1 段&emsp;1 / 10</div>
      <div class=""progress-track"">
        <div class=""progress-fill"" style=""width:10%""></div>
      </div>
    </div>","2","page1","","","","","","","","","","","","","","","","","","","","","","","","","","","","","","","","","","","","","","","","","","","","","","","","","","","","","","","","","","","","","","","","","","","","","","","","","","","","","","","","","","","",""
"html-button-response","14","190969","0.0-14.0","P1779350645110_OHY56M","4952","
        <div style=""text-align:center;padding-bottom:60px;"">
          <img src=""final_stimfile/utzubek_registan_square.jpg"" class=""stim-trial"" alt=""刺激圖片"">
          <p style=""margin-top:14px;"">您剛才選擇的答案是 <strong>西班牙</strong>，請問您對此選項的信心如何？</p>
          <p style=""color:#888;font-size:13px;"">（1 分 = 非常沒信心；5 分 = 非常有信心）</p>
        </div>
    <div class=""progress-wrap"">
      <div class=""progress-label"">第 1 段&emsp;1 / 10</div>
      <div class=""progress-track"">
        <div class=""progress-fill"" style=""width:10%""></div>
      </div>
    </div>","3","page2","","","","","","","","","","","","","","","","","","","","","","","","","","","","","","","","","","","","","","","","","","","","","","","","","","","","","","","","","","","","","","","","","","","","","","","","","","","","","","","","","","","",""
"html-button-response","15","208025","0.0-15.0","P1779350645110_OHY56M","17054","
      <div style=""display:flex;height:calc(100vh - 130px);min-height:400px;"">

        <!-- ── Left 50 %: stimulus image ── -->
        <div style=""flex:0 0 50%;display:flex;align-items:center;justify-content:center;padding:28px 16px 28px 28px;"">
          <img src=""final_stimfile/utzubek_registan_square.jpg""
               style=""max-width:100%;max-height:100%;object-fit:contain;border-radius:6px;""
               alt=""刺激圖片"">
        </div>

        <!-- ── Right 50 %: top (avatar) + bottom (chat) ── -->
        <div style=""flex:1;display:flex;flex-direction:column;padding:16px 28px 16px 16px;min-width:0;"">

          <!-- Top 40 %: robot avatar, centred -->
          <div style=""flex:0 0 40%;display:flex;flex-direction:column;align-items:center;justify-content:center;gap:10px;"">
            <img src=""stimulus/level2.png""
                 style=""width:120px;height:120px;object-fit:contain;border-radius:50%;""
                 alt="""">
            <span style=""font-size:14px;color:#555;"">機器人 A</span>
          </div>

          <!-- Bottom 60 %: chat messages -->
          <div style=""flex:1;overflow-y:auto;padding-top:6px;"">
            <div class=""chat-messages"" id=""chat-msg-area""></div>
          </div>

        </div>
      </div>
    <div class=""progress-wrap"">
      <div class=""progress-label"">第 1 段&emsp;1 / 10</div>
      <div class=""progress-track"">
        <div class=""progress-fill"" style=""width:10%""></div>
      </div>
    </div>","0","page3","","","","","","","","","","","","","","","","","","","","","","","","","","","","","","","","","","","","","","","","","","","","","","","","","","","","","","","","","","","","","","","","","","","","","","","","","","","","","","","","","","","",""
"html-button-response","16","213296","0.0-16.0","P1779350645110_OHY56M","5270","
        <div style=""text-align:center;padding-bottom:60px;"">
          <img src=""final_stimfile/utzubek_registan_square.jpg"" class=""stim-trial"" alt=""刺激圖片"">
          <p style=""margin-top:14px;"">
            您上次選擇的是 <strong>西班牙</strong>，
            機器人認為這裡是 <strong>烏茲別克</strong>，<br>
            請再次猜測您認為這張照片最可能拍攝的地點
          </p>
        </div>
    <div class=""progress-wrap"">
      <div class=""progress-label"">第 1 段&emsp;1 / 10</div>
      <div class=""progress-track"">
        <div class=""progress-fill"" style=""width:10%""></div>
      </div>
    </div>","0","page4","","","","","","","","","","","","","","","","","","","","","","","","","","","","","","","","","","","","","","","","","","","","","","","","","","","","","","","","","","","","","","","","","","","","","","","","","","","","","","","","","","","",""
"html-button-response","17","220768","0.0-17.0","P1779350645110_OHY56M","7471","
        <div style=""text-align:center;padding-bottom:60px;"">
          <img src=""final_stimfile/utzubek_registan_square.jpg"" class=""stim-trial"" alt=""刺激圖片"">
          <p style=""margin-top:14px;"">您剛才選擇的答案是 <strong>烏茲別克</strong>，請問您對此選項的信心如何？</p>
          <p style=""color:#888;font-size:13px;"">（1 分 = 非常沒信心；5 分 = 非常有信心）</p>
        </div>
    <div class=""progress-wrap"">
      <div class=""progress-label"">第 1 段&emsp;1 / 10</div>
      <div class=""progress-track"">
        <div class=""progress-fill"" style=""width:10%""></div>
      </div>
    </div>","1","trial","","","","","level2","0","0","0","1","1","utzubek_registan_square","烏茲別克","西班牙","false","4","烏茲別克","true","2","24325","5270","17054","7471","","","","","","","","","","","","","","","","","","","","","","","","","","","","","","","","","","","","","","","","","","","","","","","","","","","","","","","","","","","","","",""
"html-button-response","18","243360","0.0-18.0","P1779350645110_OHY56M","22591","
      <div style=""text-align:center;padding-bottom:60px;"">
        <img src=""final_stimfile/canada_banff_nationalpark.jpg"" class=""stim-trial"" alt=""刺激圖片"">
        <p style=""margin-top:14px;"">請猜測您認為這張照片最可能拍攝的地點</p>
      </div>
    <div class=""progress-wrap"">
      <div class=""progress-label"">第 1 段&emsp;2 / 10</div>
      <div class=""progress-track"">
        <div class=""progress-fill"" style=""width:20%""></div>
      </div>
    </div>","0","page1","","","","","","","","","","","","","","","","","","","","","","","","","","","","","","","","","","","","","","","","","","","","","","","","","","","","","","","","","","","","","","","","","","","","","","","","","","","","","","","","","","","",""
"html-button-response","19","244857","0.0-19.0","P1779350645110_OHY56M","1496","
        <div style=""text-align:center;padding-bottom:60px;"">
          <img src=""final_stimfile/canada_banff_nationalpark.jpg"" class=""stim-trial"" alt=""刺激圖片"">
          <p style=""margin-top:14px;"">您剛才選擇的答案是 <strong>加拿大</strong>，請問您對此選項的信心如何？</p>
          <p style=""color:#888;font-size:13px;"">（1 分 = 非常沒信心；5 分 = 非常有信心）</p>
        </div>
    <div class=""progress-wrap"">
      <div class=""progress-label"">第 1 段&emsp;2 / 10</div>
      <div class=""progress-track"">
        <div class=""progress-fill"" style=""width:20%""></div>
      </div>
    </div>","2","page2","","","","","","","","","","","","","","","","","","","","","","","","","","","","","","","","","","","","","","","","","","","","","","","","","","","","","","","","","","","","","","","","","","","","","","","","","","","","","","","","","","","",""
"html-button-response","20","258795","0.0-20.0","P1779350645110_OHY56M","13935","
      <div style=""display:flex;height:calc(100vh - 130px);min-height:400px;"">

        <!-- ── Left 50 %: stimulus image ── -->
        <div style=""flex:0 0 50%;display:flex;align-items:center;justify-content:center;padding:28px 16px 28px 28px;"">
          <img src=""final_stimfile/canada_banff_nationalpark.jpg""
               style=""max-width:100%;max-height:100%;object-fit:contain;border-radius:6px;""
               alt=""刺激圖片"">
        </div>

        <!-- ── Right 50 %: top (avatar) + bottom (chat) ── -->
        <div style=""flex:1;display:flex;flex-direction:column;padding:16px 28px 16px 16px;min-width:0;"">

          <!-- Top 40 %: robot avatar, centred -->
          <div style=""flex:0 0 40%;display:flex;flex-direction:column;align-items:center;justify-content:center;gap:10px;"">
            <img src=""stimulus/level2.png""
                 style=""width:120px;height:120px;object-fit:contain;border-radius:50%;""
                 alt="""">
            <span style=""font-size:14px;color:#555;"">機器人 A</span>
          </div>

          <!-- Bottom 60 %: chat messages -->
          <div style=""flex:1;overflow-y:auto;padding-top:6px;"">
            <div class=""chat-messages"" id=""chat-msg-area""></div>
          </div>

        </div>
      </div>
    <div class=""progress-wrap"">
      <div class=""progress-label"">第 1 段&emsp;2 / 10</div>
      <div class=""progress-track"">
        <div class=""progress-fill"" style=""width:20%""></div>
      </div>
    </div>","0","page3","","","","","","","","","","","","","","","","","","","","","","","","","","","","","","","","","","","","","","","","","","","","","","","","","","","","","","","","","","","","","","","","","","","","","","","","","","","","","","","","","","","",""
"html-button-response","21","261456","0.0-21.0","P1779350645110_OHY56M","2660","
        <div style=""text-align:center;padding-bottom:60px;"">
          <img src=""final_stimfile/canada_banff_nationalpark.jpg"" class=""stim-trial"" alt=""刺激圖片"">
          <p style=""margin-top:14px;"">
            您上次選擇的是 <strong>加拿大</strong>，
            機器人認為這裡是 <strong>加拿大</strong>，<br>
            請再次猜測您認為這張照片最可能拍攝的地點
          </p>
        </div>
    <div class=""progress-wrap"">
      <div class=""progress-label"">第 1 段&emsp;2 / 10</div>
      <div class=""progress-track"">
        <div class=""progress-fill"" style=""width:20%""></div>
      </div>
    </div>","0","page4","","","","","","","","","","","","","","","","","","","","","","","","","","","","","","","","","","","","","","","","","","","","","","","","","","","","","","","","","","","","","","","","","","","","","","","","","","","","","","","","","","","",""
"html-button-response","22","262784","0.0-22.0","P1779350645110_OHY56M","1327","
        <div style=""text-align:center;padding-bottom:60px;"">
          <img src=""final_stimfile/canada_banff_nationalpark.jpg"" class=""stim-trial"" alt=""刺激圖片"">
          <p style=""margin-top:14px;"">您剛才選擇的答案是 <strong>加拿大</strong>，請問您對此選項的信心如何？</p>
          <p style=""color:#888;font-size:13px;"">（1 分 = 非常沒信心；5 分 = 非常有信心）</p>
        </div>
    <div class=""progress-wrap"">
      <div class=""progress-label"">第 1 段&emsp;2 / 10</div>
      <div class=""progress-track"">
        <div class=""progress-fill"" style=""width:20%""></div>
      </div>
    </div>","3","trial","","","","","level2","0","0","0","2","2","canada_banff_nationalpark","加拿大","加拿大","true","3","加拿大","true","4","22591","2660","13935","1327","","","","","","","","","","","","","","","","","","","","","","","","","","","","","","","","","","","","","","","","","","","","","","","","","","","","","","","","","","","","","",""
"html-button-response","23","300496","0.0-23.0","P1779350645110_OHY56M","37688","
      <div style=""text-align:center;padding-bottom:60px;"">
        <img src=""final_stimfile/morocco_marrakech_souk.jpg"" class=""stim-trial"" alt=""刺激圖片"">
        <p style=""margin-top:14px;"">請猜測您認為這張照片最可能拍攝的地點</p>
      </div>
    <div class=""progress-wrap"">
      <div class=""progress-label"">第 1 段&emsp;3 / 10</div>
      <div class=""progress-track"">
        <div class=""progress-fill"" style=""width:30%""></div>
      </div>
    </div>","0","page1","","","","","","","","","","","","","","","","","","","","","","","","","","","","","","","","","","","","","","","","","","","","","","","","","","","","","","","","","","","","","","","","","","","","","","","","","","","","","","","","","","","",""
"html-button-response","24","302128","0.0-24.0","P1779350645110_OHY56M","1631","
        <div style=""text-align:center;padding-bottom:60px;"">
          <img src=""final_stimfile/morocco_marrakech_souk.jpg"" class=""stim-trial"" alt=""刺激圖片"">
          <p style=""margin-top:14px;"">您剛才選擇的答案是 <strong>摩洛哥</strong>，請問您對此選項的信心如何？</p>
          <p style=""color:#888;font-size:13px;"">（1 分 = 非常沒信心；5 分 = 非常有信心）</p>
        </div>
    <div class=""progress-wrap"">
      <div class=""progress-label"">第 1 段&emsp;3 / 10</div>
      <div class=""progress-track"">
        <div class=""progress-fill"" style=""width:30%""></div>
      </div>
    </div>","2","page2","","","","","","","","","","","","","","","","","","","","","","","","","","","","","","","","","","","","","","","","","","","","","","","","","","","","","","","","","","","","","","","","","","","","","","","","","","","","","","","","","","","",""
"html-button-response","25","313672","0.0-25.0","P1779350645110_OHY56M","11542","
      <div style=""display:flex;height:calc(100vh - 130px);min-height:400px;"">

        <!-- ── Left 50 %: stimulus image ── -->
        <div style=""flex:0 0 50%;display:flex;align-items:center;justify-content:center;padding:28px 16px 28px 28px;"">
          <img src=""final_stimfile/morocco_marrakech_souk.jpg""
               style=""max-width:100%;max-height:100%;object-fit:contain;border-radius:6px;""
               alt=""刺激圖片"">
        </div>

        <!-- ── Right 50 %: top (avatar) + bottom (chat) ── -->
        <div style=""flex:1;display:flex;flex-direction:column;padding:16px 28px 16px 16px;min-width:0;"">

          <!-- Top 40 %: robot avatar, centred -->
          <div style=""flex:0 0 40%;display:flex;flex-direction:column;align-items:center;justify-content:center;gap:10px;"">
            <img src=""stimulus/level2.png""
                 style=""width:120px;height:120px;object-fit:contain;border-radius:50%;""
                 alt="""">
            <span style=""font-size:14px;color:#555;"">機器人 A</span>
          </div>

          <!-- Bottom 60 %: chat messages -->
          <div style=""flex:1;overflow-y:auto;padding-top:6px;"">
            <div class=""chat-messages"" id=""chat-msg-area""></div>
          </div>

        </div>
      </div>
    <div class=""progress-wrap"">
      <div class=""progress-label"">第 1 段&emsp;3 / 10</div>
      <div class=""progress-track"">
        <div class=""progress-fill"" style=""width:30%""></div>
      </div>
    </div>","0","page3","","","","","","","","","","","","","","","","","","","","","","","","","","","","","","","","","","","","","","","","","","","","","","","","","","","","","","","","","","","","","","","","","","","","","","","","","","","","","","","","","","","",""
"html-button-response","26","315168","0.0-26.0","P1779350645110_OHY56M","1495","
        <div style=""text-align:center;padding-bottom:60px;"">
          <img src=""final_stimfile/morocco_marrakech_souk.jpg"" class=""stim-trial"" alt=""刺激圖片"">
          <p style=""margin-top:14px;"">
            您上次選擇的是 <strong>摩洛哥</strong>，
            機器人認為這裡是 <strong>摩洛哥</strong>，<br>
            請再次猜測您認為這張照片最可能拍攝的地點
          </p>
        </div>
    <div class=""progress-wrap"">
      <div class=""progress-label"">第 1 段&emsp;3 / 10</div>
      <div class=""progress-track"">
        <div class=""progress-fill"" style=""width:30%""></div>
      </div>
    </div>","0","page4","","","","","","","","","","","","","","","","","","","","","","","","","","","","","","","","","","","","","","","","","","","","","","","","","","","","","","","","","","","","","","","","","","","","","","","","","","","","","","","","","","","",""
"html-button-response","27","316136","0.0-27.0","P1779350645110_OHY56M","967","
        <div style=""text-align:center;padding-bottom:60px;"">
          <img src=""final_stimfile/morocco_marrakech_souk.jpg"" class=""stim-trial"" alt=""刺激圖片"">
          <p style=""margin-top:14px;"">您剛才選擇的答案是 <strong>摩洛哥</strong>，請問您對此選項的信心如何？</p>
          <p style=""color:#888;font-size:13px;"">（1 分 = 非常沒信心；5 分 = 非常有信心）</p>
        </div>
    <div class=""progress-wrap"">
      <div class=""progress-label"">第 1 段&emsp;3 / 10</div>
      <div class=""progress-track"">
        <div class=""progress-fill"" style=""width:30%""></div>
      </div>
    </div>","3","trial","","","","","level2","0","0","0","3","3","morocco_marrakech_souk","摩洛哥","摩洛哥","true","3","摩洛哥","true","4","37688","1495","11542","967","","","","","","","","","","","","","","","","","","","","","","","","","","","","","","","","","","","","","","","","","","","","","","","","","","","","","","","","","","","","","",""
"html-button-response","28","336808","0.0-28.0","P1779350645110_OHY56M","20671","
      <div style=""text-align:center;padding-bottom:60px;"">
        <img src=""final_stimfile/greek_anthem.jpg"" class=""stim-trial"" alt=""刺激圖片"">
        <p style=""margin-top:14px;"">請猜測您認為這張照片最可能拍攝的地點</p>
      </div>
    <div class=""progress-wrap"">
      <div class=""progress-label"">第 1 段&emsp;4 / 10</div>
      <div class=""progress-track"">
        <div class=""progress-fill"" style=""width:40%""></div>
      </div>
    </div>","0","page1","","","","","","","","","","","","","","","","","","","","","","","","","","","","","","","","","","","","","","","","","","","","","","","","","","","","","","","","","","","","","","","","","","","","","","","","","","","","","","","","","","","",""
"html-button-response","29","338336","0.0-29.0","P1779350645110_OHY56M","1526","
        <div style=""text-align:center;padding-bottom:60px;"">
          <img src=""final_stimfile/greek_anthem.jpg"" class=""stim-trial"" alt=""刺激圖片"">
          <p style=""margin-top:14px;"">您剛才選擇的答案是 <strong>希臘</strong>，請問您對此選項的信心如何？</p>
          <p style=""color:#888;font-size:13px;"">（1 分 = 非常沒信心；5 分 = 非常有信心）</p>
        </div>
    <div class=""progress-wrap"">
      <div class=""progress-label"">第 1 段&emsp;4 / 10</div>
      <div class=""progress-track"">
        <div class=""progress-fill"" style=""width:40%""></div>
      </div>
    </div>","3","page2","","","","","","","","","","","","","","","","","","","","","","","","","","","","","","","","","","","","","","","","","","","","","","","","","","","","","","","","","","","","","","","","","","","","","","","","","","","","","","","","","","","",""
"html-button-response","30","350369","0.0-30.0","P1779350645110_OHY56M","12031","
      <div style=""display:flex;height:calc(100vh - 130px);min-height:400px;"">

        <!-- ── Left 50 %: stimulus image ── -->
        <div style=""flex:0 0 50%;display:flex;align-items:center;justify-content:center;padding:28px 16px 28px 28px;"">
          <img src=""final_stimfile/greek_anthem.jpg""
               style=""max-width:100%;max-height:100%;object-fit:contain;border-radius:6px;""
               alt=""刺激圖片"">
        </div>

        <!-- ── Right 50 %: top (avatar) + bottom (chat) ── -->
        <div style=""flex:1;display:flex;flex-direction:column;padding:16px 28px 16px 16px;min-width:0;"">

          <!-- Top 40 %: robot avatar, centred -->
          <div style=""flex:0 0 40%;display:flex;flex-direction:column;align-items:center;justify-content:center;gap:10px;"">
            <img src=""stimulus/level2.png""
                 style=""width:120px;height:120px;object-fit:contain;border-radius:50%;""
                 alt="""">
            <span style=""font-size:14px;color:#555;"">機器人 A</span>
          </div>

          <!-- Bottom 60 %: chat messages -->
          <div style=""flex:1;overflow-y:auto;padding-top:6px;"">
            <div class=""chat-messages"" id=""chat-msg-area""></div>
          </div>

        </div>
      </div>
    <div class=""progress-wrap"">
      <div class=""progress-label"">第 1 段&emsp;4 / 10</div>
      <div class=""progress-track"">
        <div class=""progress-fill"" style=""width:40%""></div>
      </div>
    </div>","0","page3","","","","","","","","","","","","","","","","","","","","","","","","","","","","","","","","","","","","","","","","","","","","","","","","","","","","","","","","","","","","","","","","","","","","","","","","","","","","","","","","","","","",""
"html-button-response","31","352201","0.0-31.0","P1779350645110_OHY56M","1831","
        <div style=""text-align:center;padding-bottom:60px;"">
          <img src=""final_stimfile/greek_anthem.jpg"" class=""stim-trial"" alt=""刺激圖片"">
          <p style=""margin-top:14px;"">
            您上次選擇的是 <strong>希臘</strong>，
            機器人認為這裡是 <strong>希臘</strong>，<br>
            請再次猜測您認為這張照片最可能拍攝的地點
          </p>
        </div>
    <div class=""progress-wrap"">
      <div class=""progress-label"">第 1 段&emsp;4 / 10</div>
      <div class=""progress-track"">
        <div class=""progress-fill"" style=""width:40%""></div>
      </div>
    </div>","0","page4","","","","","","","","","","","","","","","","","","","","","","","","","","","","","","","","","","","","","","","","","","","","","","","","","","","","","","","","","","","","","","","","","","","","","","","","","","","","","","","","","","","",""
"html-button-response","32","353024","0.0-32.0","P1779350645110_OHY56M","822","
        <div style=""text-align:center;padding-bottom:60px;"">
          <img src=""final_stimfile/greek_anthem.jpg"" class=""stim-trial"" alt=""刺激圖片"">
          <p style=""margin-top:14px;"">您剛才選擇的答案是 <strong>希臘</strong>，請問您對此選項的信心如何？</p>
          <p style=""color:#888;font-size:13px;"">（1 分 = 非常沒信心；5 分 = 非常有信心）</p>
        </div>
    <div class=""progress-wrap"">
      <div class=""progress-label"">第 1 段&emsp;4 / 10</div>
      <div class=""progress-track"">
        <div class=""progress-fill"" style=""width:40%""></div>
      </div>
    </div>","4","trial","","","","","level2","0","0","0","4","4","greek_anthem","希臘","希臘","true","4","希臘","true","5","20671","1831","12031","822","","","","","","","","","","","","","","","","","","","","","","","","","","","","","","","","","","","","","","","","","","","","","","","","","","","","","","","","","","","","","",""
"html-button-response","33","430969","0.0-33.0","P1779350645110_OHY56M","77944","
      <div style=""text-align:center;padding-bottom:60px;"">
        <img src=""final_stimfile/holland_rotterdam.jpg"" class=""stim-trial"" alt=""刺激圖片"">
        <p style=""margin-top:14px;"">請猜測您認為這張照片最可能拍攝的地點</p>
      </div>
    <div class=""progress-wrap"">
      <div class=""progress-label"">第 1 段&emsp;5 / 10</div>
      <div class=""progress-track"">
        <div class=""progress-fill"" style=""width:50%""></div>
      </div>
    </div>","0","page1","","","","","","","","","","","","","","","","","","","","","","","","","","","","","","","","","","","","","","","","","","","","","","","","","","","","","","","","","","","","","","","","","","","","","","","","","","","","","","","","","","","",""
"html-button-response","34","432217","0.0-34.0","P1779350645110_OHY56M","1246","
        <div style=""text-align:center;padding-bottom:60px;"">
          <img src=""final_stimfile/holland_rotterdam.jpg"" class=""stim-trial"" alt=""刺激圖片"">
          <p style=""margin-top:14px;"">您剛才選擇的答案是 <strong>荷蘭</strong>，請問您對此選項的信心如何？</p>
          <p style=""color:#888;font-size:13px;"">（1 分 = 非常沒信心；5 分 = 非常有信心）</p>
        </div>
    <div class=""progress-wrap"">
      <div class=""progress-label"">第 1 段&emsp;5 / 10</div>
      <div class=""progress-track"">
        <div class=""progress-fill"" style=""width:50%""></div>
      </div>
    </div>","2","page2","","","","","","","","","","","","","","","","","","","","","","","","","","","","","","","","","","","","","","","","","","","","","","","","","","","","","","","","","","","","","","","","","","","","","","","","","","","","","","","","","","","",""
"html-button-response","35","449032","0.0-35.0","P1779350645110_OHY56M","16814","
      <div style=""display:flex;height:calc(100vh - 130px);min-height:400px;"">

        <!-- ── Left 50 %: stimulus image ── -->
        <div style=""flex:0 0 50%;display:flex;align-items:center;justify-content:center;padding:28px 16px 28px 28px;"">
          <img src=""final_stimfile/holland_rotterdam.jpg""
               style=""max-width:100%;max-height:100%;object-fit:contain;border-radius:6px;""
               alt=""刺激圖片"">
        </div>

        <!-- ── Right 50 %: top (avatar) + bottom (chat) ── -->
        <div style=""flex:1;display:flex;flex-direction:column;padding:16px 28px 16px 16px;min-width:0;"">

          <!-- Top 40 %: robot avatar, centred -->
          <div style=""flex:0 0 40%;display:flex;flex-direction:column;align-items:center;justify-content:center;gap:10px;"">
            <img src=""stimulus/level2.png""
                 style=""width:120px;height:120px;object-fit:contain;border-radius:50%;""
                 alt="""">
            <span style=""font-size:14px;color:#555;"">機器人 A</span>
          </div>

          <!-- Bottom 60 %: chat messages -->
          <div style=""flex:1;overflow-y:auto;padding-top:6px;"">
            <div class=""chat-messages"" id=""chat-msg-area""></div>
          </div>

        </div>
      </div>
    <div class=""progress-wrap"">
      <div class=""progress-label"">第 1 段&emsp;5 / 10</div>
      <div class=""progress-track"">
        <div class=""progress-fill"" style=""width:50%""></div>
      </div>
    </div>","0","page3","","","","","","","","","","","","","","","","","","","","","","","","","","","","","","","","","","","","","","","","","","","","","","","","","","","","","","","","","","","","","","","","","","","","","","","","","","","","","","","","","","","",""
"html-button-response","36","450512","0.0-36.0","P1779350645110_OHY56M","1478","
        <div style=""text-align:center;padding-bottom:60px;"">
          <img src=""final_stimfile/holland_rotterdam.jpg"" class=""stim-trial"" alt=""刺激圖片"">
          <p style=""margin-top:14px;"">
            您上次選擇的是 <strong>荷蘭</strong>，
            機器人認為這裡是 <strong>荷蘭</strong>，<br>
            請再次猜測您認為這張照片最可能拍攝的地點
          </p>
        </div>
    <div class=""progress-wrap"">
      <div class=""progress-label"">第 1 段&emsp;5 / 10</div>
      <div class=""progress-track"">
        <div class=""progress-fill"" style=""width:50%""></div>
      </div>
    </div>","0","page4","","","","","","","","","","","","","","","","","","","","","","","","","","","","","","","","","","","","","","","","","","","","","","","","","","","","","","","","","","","","","","","","","","","","","","","","","","","","","","","","","","","",""
"html-button-response","37","451312","0.0-37.0","P1779350645110_OHY56M","800","
        <div style=""text-align:center;padding-bottom:60px;"">
          <img src=""final_stimfile/holland_rotterdam.jpg"" class=""stim-trial"" alt=""刺激圖片"">
          <p style=""margin-top:14px;"">您剛才選擇的答案是 <strong>荷蘭</strong>，請問您對此選項的信心如何？</p>
          <p style=""color:#888;font-size:13px;"">（1 分 = 非常沒信心；5 分 = 非常有信心）</p>
        </div>
    <div class=""progress-wrap"">
      <div class=""progress-label"">第 1 段&emsp;5 / 10</div>
      <div class=""progress-track"">
        <div class=""progress-fill"" style=""width:50%""></div>
      </div>
    </div>","3","trial","","","","","level2","0","0","0","5","5","holland_rotterdam","荷蘭","荷蘭","true","3","荷蘭","true","4","77944","1478","16814","800","","","","","","","","","","","","","","","","","","","","","","","","","","","","","","","","","","","","","","","","","","","","","","","","","","","","","","","","","","","","","",""
"html-button-response","38","486200","0.0-38.0","P1779350645110_OHY56M","34887","
      <div style=""text-align:center;padding-bottom:60px;"">
        <img src=""final_stimfile/nicaragua_01_solentiname_island.jpg"" class=""stim-trial"" alt=""刺激圖片"">
        <p style=""margin-top:14px;"">請猜測您認為這張照片最可能拍攝的地點</p>
      </div>
    <div class=""progress-wrap"">
      <div class=""progress-label"">第 1 段&emsp;6 / 10</div>
      <div class=""progress-track"">
        <div class=""progress-fill"" style=""width:60%""></div>
      </div>
    </div>","0","page1","","","","","","","","","","","","","","","","","","","","","","","","","","","","","","","","","","","","","","","","","","","","","","","","","","","","","","","","","","","","","","","","","","","","","","","","","","","","","","","","","","","",""
"html-button-response","39","487841","0.0-39.0","P1779350645110_OHY56M","1639","
        <div style=""text-align:center;padding-bottom:60px;"">
          <img src=""final_stimfile/nicaragua_01_solentiname_island.jpg"" class=""stim-trial"" alt=""刺激圖片"">
          <p style=""margin-top:14px;"">您剛才選擇的答案是 <strong>尼加拉瓜</strong>，請問您對此選項的信心如何？</p>
          <p style=""color:#888;font-size:13px;"">（1 分 = 非常沒信心；5 分 = 非常有信心）</p>
        </div>
    <div class=""progress-wrap"">
      <div class=""progress-label"">第 1 段&emsp;6 / 10</div>
      <div class=""progress-track"">
        <div class=""progress-fill"" style=""width:60%""></div>
      </div>
    </div>","2","page2","","","","","","","","","","","","","","","","","","","","","","","","","","","","","","","","","","","","","","","","","","","","","","","","","","","","","","","","","","","","","","","","","","","","","","","","","","","","","","","","","","","",""
"html-button-response","40","501216","0.0-40.0","P1779350645110_OHY56M","13374","
      <div style=""display:flex;height:calc(100vh - 130px);min-height:400px;"">

        <!-- ── Left 50 %: stimulus image ── -->
        <div style=""flex:0 0 50%;display:flex;align-items:center;justify-content:center;padding:28px 16px 28px 28px;"">
          <img src=""final_stimfile/nicaragua_01_solentiname_island.jpg""
               style=""max-width:100%;max-height:100%;object-fit:contain;border-radius:6px;""
               alt=""刺激圖片"">
        </div>

        <!-- ── Right 50 %: top (avatar) + bottom (chat) ── -->
        <div style=""flex:1;display:flex;flex-direction:column;padding:16px 28px 16px 16px;min-width:0;"">

          <!-- Top 40 %: robot avatar, centred -->
          <div style=""flex:0 0 40%;display:flex;flex-direction:column;align-items:center;justify-content:center;gap:10px;"">
            <img src=""stimulus/level2.png""
                 style=""width:120px;height:120px;object-fit:contain;border-radius:50%;""
                 alt="""">
            <span style=""font-size:14px;color:#555;"">機器人 A</span>
          </div>

          <!-- Bottom 60 %: chat messages -->
          <div style=""flex:1;overflow-y:auto;padding-top:6px;"">
            <div class=""chat-messages"" id=""chat-msg-area""></div>
          </div>

        </div>
      </div>
    <div class=""progress-wrap"">
      <div class=""progress-label"">第 1 段&emsp;6 / 10</div>
      <div class=""progress-track"">
        <div class=""progress-fill"" style=""width:60%""></div>
      </div>
    </div>","0","page3","","","","","","","","","","","","","","","","","","","","","","","","","","","","","","","","","","","","","","","","","","","","","","","","","","","","","","","","","","","","","","","","","","","","","","","","","","","","","","","","","","","",""
"html-button-response","41","502010","0.0-41.0","P1779350645110_OHY56M","792","
        <div style=""text-align:center;padding-bottom:60px;"">
          <img src=""final_stimfile/nicaragua_01_solentiname_island.jpg"" class=""stim-trial"" alt=""刺激圖片"">
          <p style=""margin-top:14px;"">
            您上次選擇的是 <strong>尼加拉瓜</strong>，
            機器人認為這裡是 <strong>尼加拉瓜</strong>，<br>
            請再次猜測您認為這張照片最可能拍攝的地點
          </p>
        </div>
    <div class=""progress-wrap"">
      <div class=""progress-label"">第 1 段&emsp;6 / 10</div>
      <div class=""progress-track"">
        <div class=""progress-fill"" style=""width:60%""></div>
      </div>
    </div>","0","page4","","","","","","","","","","","","","","","","","","","","","","","","","","","","","","","","","","","","","","","","","","","","","","","","","","","","","","","","","","","","","","","","","","","","","","","","","","","","","","","","","","","",""
"html-button-response","42","503033","0.0-42.0","P1779350645110_OHY56M","1021","
        <div style=""text-align:center;padding-bottom:60px;"">
          <img src=""final_stimfile/nicaragua_01_solentiname_island.jpg"" class=""stim-trial"" alt=""刺激圖片"">
          <p style=""margin-top:14px;"">您剛才選擇的答案是 <strong>尼加拉瓜</strong>，請問您對此選項的信心如何？</p>
          <p style=""color:#888;font-size:13px;"">（1 分 = 非常沒信心；5 分 = 非常有信心）</p>
        </div>
    <div class=""progress-wrap"">
      <div class=""progress-label"">第 1 段&emsp;6 / 10</div>
      <div class=""progress-track"">
        <div class=""progress-fill"" style=""width:60%""></div>
      </div>
    </div>","3","trial","","","","","level2","0","0","0","6","6","nicaragua_01_solentiname_island","尼加拉瓜","尼加拉瓜","true","3","尼加拉瓜","true","4","34887","792","13374","1021","","","","","","","","","","","","","","","","","","","","","","","","","","","","","","","","","","","","","","","","","","","","","","","","","","","","","","","","","","","","","",""
"html-button-response","43","602408","0.0-43.0","P1779350645110_OHY56M","99374","
      <div style=""text-align:center;padding-bottom:60px;"">
        <img src=""final_stimfile/ethopia_lalibela_rock_churches.jpg"" class=""stim-trial"" alt=""刺激圖片"">
        <p style=""margin-top:14px;"">請猜測您認為這張照片最可能拍攝的地點</p>
      </div>
    <div class=""progress-wrap"">
      <div class=""progress-label"">第 1 段&emsp;7 / 10</div>
      <div class=""progress-track"">
        <div class=""progress-fill"" style=""width:70%""></div>
      </div>
    </div>","0","page1","","","","","","","","","","","","","","","","","","","","","","","","","","","","","","","","","","","","","","","","","","","","","","","","","","","","","","","","","","","","","","","","","","","","","","","","","","","","","","","","","","","",""
"html-button-response","44","604353","0.0-44.0","P1779350645110_OHY56M","1943","
        <div style=""text-align:center;padding-bottom:60px;"">
          <img src=""final_stimfile/ethopia_lalibela_rock_churches.jpg"" class=""stim-trial"" alt=""刺激圖片"">
          <p style=""margin-top:14px;"">您剛才選擇的答案是 <strong>衣索比亞</strong>，請問您對此選項的信心如何？</p>
          <p style=""color:#888;font-size:13px;"">（1 分 = 非常沒信心；5 分 = 非常有信心）</p>
        </div>
    <div class=""progress-wrap"">
      <div class=""progress-label"">第 1 段&emsp;7 / 10</div>
      <div class=""progress-track"">
        <div class=""progress-fill"" style=""width:70%""></div>
      </div>
    </div>","2","page2","","","","","","","","","","","","","","","","","","","","","","","","","","","","","","","","","","","","","","","","","","","","","","","","","","","","","","","","","","","","","","","","","","","","","","","","","","","","","","","","","","","",""
"html-button-response","45","617688","0.0-45.0","P1779350645110_OHY56M","13334","
      <div style=""display:flex;height:calc(100vh - 130px);min-height:400px;"">

        <!-- ── Left 50 %: stimulus image ── -->
        <div style=""flex:0 0 50%;display:flex;align-items:center;justify-content:center;padding:28px 16px 28px 28px;"">
          <img src=""final_stimfile/ethopia_lalibela_rock_churches.jpg""
               style=""max-width:100%;max-height:100%;object-fit:contain;border-radius:6px;""
               alt=""刺激圖片"">
        </div>

        <!-- ── Right 50 %: top (avatar) + bottom (chat) ── -->
        <div style=""flex:1;display:flex;flex-direction:column;padding:16px 28px 16px 16px;min-width:0;"">

          <!-- Top 40 %: robot avatar, centred -->
          <div style=""flex:0 0 40%;display:flex;flex-direction:column;align-items:center;justify-content:center;gap:10px;"">
            <img src=""stimulus/level2.png""
                 style=""width:120px;height:120px;object-fit:contain;border-radius:50%;""
                 alt="""">
            <span style=""font-size:14px;color:#555;"">機器人 A</span>
          </div>

          <!-- Bottom 60 %: chat messages -->
          <div style=""flex:1;overflow-y:auto;padding-top:6px;"">
            <div class=""chat-messages"" id=""chat-msg-area""></div>
          </div>

        </div>
      </div>
    <div class=""progress-wrap"">
      <div class=""progress-label"">第 1 段&emsp;7 / 10</div>
      <div class=""progress-track"">
        <div class=""progress-fill"" style=""width:70%""></div>
      </div>
    </div>","0","page3","","","","","","","","","","","","","","","","","","","","","","","","","","","","","","","","","","","","","","","","","","","","","","","","","","","","","","","","","","","","","","","","","","","","","","","","","","","","","","","","","","","",""
"html-button-response","46","621016","0.0-46.0","P1779350645110_OHY56M","3327","
        <div style=""text-align:center;padding-bottom:60px;"">
          <img src=""final_stimfile/ethopia_lalibela_rock_churches.jpg"" class=""stim-trial"" alt=""刺激圖片"">
          <p style=""margin-top:14px;"">
            您上次選擇的是 <strong>衣索比亞</strong>，
            機器人認為這裡是 <strong>衣索比亞</strong>，<br>
            請再次猜測您認為這張照片最可能拍攝的地點
          </p>
        </div>
    <div class=""progress-wrap"">
      <div class=""progress-label"">第 1 段&emsp;7 / 10</div>
      <div class=""progress-track"">
        <div class=""progress-fill"" style=""width:70%""></div>
      </div>
    </div>","0","page4","","","","","","","","","","","","","","","","","","","","","","","","","","","","","","","","","","","","","","","","","","","","","","","","","","","","","","","","","","","","","","","","","","","","","","","","","","","","","","","","","","","",""
"html-button-response","47","621688","0.0-47.0","P1779350645110_OHY56M","671","
        <div style=""text-align:center;padding-bottom:60px;"">
          <img src=""final_stimfile/ethopia_lalibela_rock_churches.jpg"" class=""stim-trial"" alt=""刺激圖片"">
          <p style=""margin-top:14px;"">您剛才選擇的答案是 <strong>衣索比亞</strong>，請問您對此選項的信心如何？</p>
          <p style=""color:#888;font-size:13px;"">（1 分 = 非常沒信心；5 分 = 非常有信心）</p>
        </div>
    <div class=""progress-wrap"">
      <div class=""progress-label"">第 1 段&emsp;7 / 10</div>
      <div class=""progress-track"">
        <div class=""progress-fill"" style=""width:70%""></div>
      </div>
    </div>","3","trial","","","","","level2","0","0","0","7","7","ethopia_lalibela_rock_churches","衣索比亞","衣索比亞","true","3","衣索比亞","true","4","99374","3327","13334","671","","","","","","","","","","","","","","","","","","","","","","","","","","","","","","","","","","","","","","","","","","","","","","","","","","","","","","","","","","","","","",""
"html-button-response","48","665888","0.0-48.0","P1779350645110_OHY56M","44200","
      <div style=""text-align:center;padding-bottom:60px;"">
        <img src=""final_stimfile/argentina_01_antigua_estacion_trelew_3.jpg"" class=""stim-trial"" alt=""刺激圖片"">
        <p style=""margin-top:14px;"">請猜測您認為這張照片最可能拍攝的地點</p>
      </div>
    <div class=""progress-wrap"">
      <div class=""progress-label"">第 1 段&emsp;8 / 10</div>
      <div class=""progress-track"">
        <div class=""progress-fill"" style=""width:80%""></div>
      </div>
    </div>","0","page1","","","","","","","","","","","","","","","","","","","","","","","","","","","","","","","","","","","","","","","","","","","","","","","","","","","","","","","","","","","","","","","","","","","","","","","","","","","","","","","","","","","",""
"html-button-response","49","669408","0.0-49.0","P1779350645110_OHY56M","3519","
        <div style=""text-align:center;padding-bottom:60px;"">
          <img src=""final_stimfile/argentina_01_antigua_estacion_trelew_3.jpg"" class=""stim-trial"" alt=""刺激圖片"">
          <p style=""margin-top:14px;"">您剛才選擇的答案是 <strong>阿根廷</strong>，請問您對此選項的信心如何？</p>
          <p style=""color:#888;font-size:13px;"">（1 分 = 非常沒信心；5 分 = 非常有信心）</p>
        </div>
    <div class=""progress-wrap"">
      <div class=""progress-label"">第 1 段&emsp;8 / 10</div>
      <div class=""progress-track"">
        <div class=""progress-fill"" style=""width:80%""></div>
      </div>
    </div>","3","page2","","","","","","","","","","","","","","","","","","","","","","","","","","","","","","","","","","","","","","","","","","","","","","","","","","","","","","","","","","","","","","","","","","","","","","","","","","","","","","","","","","","",""
"html-button-response","50","688649","0.0-50.0","P1779350645110_OHY56M","19240","
      <div style=""display:flex;height:calc(100vh - 130px);min-height:400px;"">

        <!-- ── Left 50 %: stimulus image ── -->
        <div style=""flex:0 0 50%;display:flex;align-items:center;justify-content:center;padding:28px 16px 28px 28px;"">
          <img src=""final_stimfile/argentina_01_antigua_estacion_trelew_3.jpg""
               style=""max-width:100%;max-height:100%;object-fit:contain;border-radius:6px;""
               alt=""刺激圖片"">
        </div>

        <!-- ── Right 50 %: top (avatar) + bottom (chat) ── -->
        <div style=""flex:1;display:flex;flex-direction:column;padding:16px 28px 16px 16px;min-width:0;"">

          <!-- Top 40 %: robot avatar, centred -->
          <div style=""flex:0 0 40%;display:flex;flex-direction:column;align-items:center;justify-content:center;gap:10px;"">
            <img src=""stimulus/level2.png""
                 style=""width:120px;height:120px;object-fit:contain;border-radius:50%;""
                 alt="""">
            <span style=""font-size:14px;color:#555;"">機器人 A</span>
          </div>

          <!-- Bottom 60 %: chat messages -->
          <div style=""flex:1;overflow-y:auto;padding-top:6px;"">
            <div class=""chat-messages"" id=""chat-msg-area""></div>
          </div>

        </div>
      </div>
    <div class=""progress-wrap"">
      <div class=""progress-label"">第 1 段&emsp;8 / 10</div>
      <div class=""progress-track"">
        <div class=""progress-fill"" style=""width:80%""></div>
      </div>
    </div>","0","page3","","","","","","","","","","","","","","","","","","","","","","","","","","","","","","","","","","","","","","","","","","","","","","","","","","","","","","","","","","","","","","","","","","","","","","","","","","","","","","","","","","","",""
"html-button-response","51","690112","0.0-51.0","P1779350645110_OHY56M","1462","
        <div style=""text-align:center;padding-bottom:60px;"">
          <img src=""final_stimfile/argentina_01_antigua_estacion_trelew_3.jpg"" class=""stim-trial"" alt=""刺激圖片"">
          <p style=""margin-top:14px;"">
            您上次選擇的是 <strong>阿根廷</strong>，
            機器人認為這裡是 <strong>阿根廷</strong>，<br>
            請再次猜測您認為這張照片最可能拍攝的地點
          </p>
        </div>
    <div class=""progress-wrap"">
      <div class=""progress-label"">第 1 段&emsp;8 / 10</div>
      <div class=""progress-track"">
        <div class=""progress-fill"" style=""width:80%""></div>
      </div>
    </div>","0","page4","","","","","","","","","","","","","","","","","","","","","","","","","","","","","","","","","","","","","","","","","","","","","","","","","","","","","","","","","","","","","","","","","","","","","","","","","","","","","","","","","","","",""
"html-button-response","52","690937","0.0-52.0","P1779350645110_OHY56M","824","
        <div style=""text-align:center;padding-bottom:60px;"">
          <img src=""final_stimfile/argentina_01_antigua_estacion_trelew_3.jpg"" class=""stim-trial"" alt=""刺激圖片"">
          <p style=""margin-top:14px;"">您剛才選擇的答案是 <strong>阿根廷</strong>，請問您對此選項的信心如何？</p>
          <p style=""color:#888;font-size:13px;"">（1 分 = 非常沒信心；5 分 = 非常有信心）</p>
        </div>
    <div class=""progress-wrap"">
      <div class=""progress-label"">第 1 段&emsp;8 / 10</div>
      <div class=""progress-track"">
        <div class=""progress-fill"" style=""width:80%""></div>
      </div>
    </div>","4","trial","","","","","level2","0","0","0","8","8","argentina_01_antigua_estacion_trelew_3","阿根廷","阿根廷","true","4","阿根廷","true","5","44200","1462","19240","824","","","","","","","","","","","","","","","","","","","","","","","","","","","","","","","","","","","","","","","","","","","","","","","","","","","","","","","","","","","","","",""
"html-button-response","53","723377","0.0-53.0","P1779350645110_OHY56M","32438","
      <div style=""text-align:center;padding-bottom:60px;"">
        <img src=""final_stimfile/canada_02_cultus_lake.jpg"" class=""stim-trial"" alt=""刺激圖片"">
        <p style=""margin-top:14px;"">請猜測您認為這張照片最可能拍攝的地點</p>
      </div>
    <div class=""progress-wrap"">
      <div class=""progress-label"">第 1 段&emsp;9 / 10</div>
      <div class=""progress-track"">
        <div class=""progress-fill"" style=""width:90%""></div>
      </div>
    </div>","0","page1","","","","","","","","","","","","","","","","","","","","","","","","","","","","","","","","","","","","","","","","","","","","","","","","","","","","","","","","","","","","","","","","","","","","","","","","","","","","","","","","","","","",""
"html-button-response","54","724561","0.0-54.0","P1779350645110_OHY56M","1182","
        <div style=""text-align:center;padding-bottom:60px;"">
          <img src=""final_stimfile/canada_02_cultus_lake.jpg"" class=""stim-trial"" alt=""刺激圖片"">
          <p style=""margin-top:14px;"">您剛才選擇的答案是 <strong>加拿大</strong>，請問您對此選項的信心如何？</p>
          <p style=""color:#888;font-size:13px;"">（1 分 = 非常沒信心；5 分 = 非常有信心）</p>
        </div>
    <div class=""progress-wrap"">
      <div class=""progress-label"">第 1 段&emsp;9 / 10</div>
      <div class=""progress-track"">
        <div class=""progress-fill"" style=""width:90%""></div>
      </div>
    </div>","2","page2","","","","","","","","","","","","","","","","","","","","","","","","","","","","","","","","","","","","","","","","","","","","","","","","","","","","","","","","","","","","","","","","","","","","","","","","","","","","","","","","","","","",""
"html-button-response","55","737504","0.0-55.0","P1779350645110_OHY56M","12942","
      <div style=""display:flex;height:calc(100vh - 130px);min-height:400px;"">

        <!-- ── Left 50 %: stimulus image ── -->
        <div style=""flex:0 0 50%;display:flex;align-items:center;justify-content:center;padding:28px 16px 28px 28px;"">
          <img src=""final_stimfile/canada_02_cultus_lake.jpg""
               style=""max-width:100%;max-height:100%;object-fit:contain;border-radius:6px;""
               alt=""刺激圖片"">
        </div>

        <!-- ── Right 50 %: top (avatar) + bottom (chat) ── -->
        <div style=""flex:1;display:flex;flex-direction:column;padding:16px 28px 16px 16px;min-width:0;"">

          <!-- Top 40 %: robot avatar, centred -->
          <div style=""flex:0 0 40%;display:flex;flex-direction:column;align-items:center;justify-content:center;gap:10px;"">
            <img src=""stimulus/level2.png""
                 style=""width:120px;height:120px;object-fit:contain;border-radius:50%;""
                 alt="""">
            <span style=""font-size:14px;color:#555;"">機器人 A</span>
          </div>

          <!-- Bottom 60 %: chat messages -->
          <div style=""flex:1;overflow-y:auto;padding-top:6px;"">
            <div class=""chat-messages"" id=""chat-msg-area""></div>
          </div>

        </div>
      </div>
    <div class=""progress-wrap"">
      <div class=""progress-label"">第 1 段&emsp;9 / 10</div>
      <div class=""progress-track"">
        <div class=""progress-fill"" style=""width:90%""></div>
      </div>
    </div>","0","page3","","","","","","","","","","","","","","","","","","","","","","","","","","","","","","","","","","","","","","","","","","","","","","","","","","","","","","","","","","","","","","","","","","","","","","","","","","","","","","","","","","","",""
"html-button-response","56","738912","0.0-56.0","P1779350645110_OHY56M","1407","
        <div style=""text-align:center;padding-bottom:60px;"">
          <img src=""final_stimfile/canada_02_cultus_lake.jpg"" class=""stim-trial"" alt=""刺激圖片"">
          <p style=""margin-top:14px;"">
            您上次選擇的是 <strong>加拿大</strong>，
            機器人認為這裡是 <strong>加拿大</strong>，<br>
            請再次猜測您認為這張照片最可能拍攝的地點
          </p>
        </div>
    <div class=""progress-wrap"">
      <div class=""progress-label"">第 1 段&emsp;9 / 10</div>
      <div class=""progress-track"">
        <div class=""progress-fill"" style=""width:90%""></div>
      </div>
    </div>","0","page4","","","","","","","","","","","","","","","","","","","","","","","","","","","","","","","","","","","","","","","","","","","","","","","","","","","","","","","","","","","","","","","","","","","","","","","","","","","","","","","","","","","",""
"html-button-response","57","739736","0.0-57.0","P1779350645110_OHY56M","823","
        <div style=""text-align:center;padding-bottom:60px;"">
          <img src=""final_stimfile/canada_02_cultus_lake.jpg"" class=""stim-trial"" alt=""刺激圖片"">
          <p style=""margin-top:14px;"">您剛才選擇的答案是 <strong>加拿大</strong>，請問您對此選項的信心如何？</p>
          <p style=""color:#888;font-size:13px;"">（1 分 = 非常沒信心；5 分 = 非常有信心）</p>
        </div>
    <div class=""progress-wrap"">
      <div class=""progress-label"">第 1 段&emsp;9 / 10</div>
      <div class=""progress-track"">
        <div class=""progress-fill"" style=""width:90%""></div>
      </div>
    </div>","3","trial","","","","","level2","0","0","0","9","9","canada_02_cultus_lake","加拿大","加拿大","true","3","加拿大","true","4","32438","1407","12942","823","","","","","","","","","","","","","","","","","","","","","","","","","","","","","","","","","","","","","","","","","","","","","","","","","","","","","","","","","","","","","",""
"html-button-response","58","797889","0.0-58.0","P1779350645110_OHY56M","58151","
      <div style=""text-align:center;padding-bottom:60px;"">
        <img src=""final_stimfile/greenisland_02_brynjudalur.jpg"" class=""stim-trial"" alt=""刺激圖片"">
        <p style=""margin-top:14px;"">請猜測您認為這張照片最可能拍攝的地點</p>
      </div>
    <div class=""progress-wrap"">
      <div class=""progress-label"">第 1 段&emsp;10 / 10</div>
      <div class=""progress-track"">
        <div class=""progress-fill"" style=""width:100%""></div>
      </div>
    </div>","0","page1","","","","","","","","","","","","","","","","","","","","","","","","","","","","","","","","","","","","","","","","","","","","","","","","","","","","","","","","","","","","","","","","","","","","","","","","","","","","","","","","","","","",""
"html-button-response","59","800536","0.0-59.0","P1779350645110_OHY56M","2645","
        <div style=""text-align:center;padding-bottom:60px;"">
          <img src=""final_stimfile/greenisland_02_brynjudalur.jpg"" class=""stim-trial"" alt=""刺激圖片"">
          <p style=""margin-top:14px;"">您剛才選擇的答案是 <strong>冰島</strong>，請問您對此選項的信心如何？</p>
          <p style=""color:#888;font-size:13px;"">（1 分 = 非常沒信心；5 分 = 非常有信心）</p>
        </div>
    <div class=""progress-wrap"">
      <div class=""progress-label"">第 1 段&emsp;10 / 10</div>
      <div class=""progress-track"">
        <div class=""progress-fill"" style=""width:100%""></div>
      </div>
    </div>","3","page2","","","","","","","","","","","","","","","","","","","","","","","","","","","","","","","","","","","","","","","","","","","","","","","","","","","","","","","","","","","","","","","","","","","","","","","","","","","","","","","","","","","",""
"html-button-response","60","812568","0.0-60.0","P1779350645110_OHY56M","12031","
      <div style=""display:flex;height:calc(100vh - 130px);min-height:400px;"">

        <!-- ── Left 50 %: stimulus image ── -->
        <div style=""flex:0 0 50%;display:flex;align-items:center;justify-content:center;padding:28px 16px 28px 28px;"">
          <img src=""final_stimfile/greenisland_02_brynjudalur.jpg""
               style=""max-width:100%;max-height:100%;object-fit:contain;border-radius:6px;""
               alt=""刺激圖片"">
        </div>

        <!-- ── Right 50 %: top (avatar) + bottom (chat) ── -->
        <div style=""flex:1;display:flex;flex-direction:column;padding:16px 28px 16px 16px;min-width:0;"">

          <!-- Top 40 %: robot avatar, centred -->
          <div style=""flex:0 0 40%;display:flex;flex-direction:column;align-items:center;justify-content:center;gap:10px;"">
            <img src=""stimulus/level2.png""
                 style=""width:120px;height:120px;object-fit:contain;border-radius:50%;""
                 alt="""">
            <span style=""font-size:14px;color:#555;"">機器人 A</span>
          </div>

          <!-- Bottom 60 %: chat messages -->
          <div style=""flex:1;overflow-y:auto;padding-top:6px;"">
            <div class=""chat-messages"" id=""chat-msg-area""></div>
          </div>

        </div>
      </div>
    <div class=""progress-wrap"">
      <div class=""progress-label"">第 1 段&emsp;10 / 10</div>
      <div class=""progress-track"">
        <div class=""progress-fill"" style=""width:100%""></div>
      </div>
    </div>","0","page3","","","","","","","","","","","","","","","","","","","","","","","","","","","","","","","","","","","","","","","","","","","","","","","","","","","","","","","","","","","","","","","","","","","","","","","","","","","","","","","","","","","",""
"html-button-response","61","826248","0.0-61.0","P1779350645110_OHY56M","13679","
        <div style=""text-align:center;padding-bottom:60px;"">
          <img src=""final_stimfile/greenisland_02_brynjudalur.jpg"" class=""stim-trial"" alt=""刺激圖片"">
          <p style=""margin-top:14px;"">
            您上次選擇的是 <strong>冰島</strong>，
            機器人認為這裡是 <strong>冰島</strong>，<br>
            請再次猜測您認為這張照片最可能拍攝的地點
          </p>
        </div>
    <div class=""progress-wrap"">
      <div class=""progress-label"">第 1 段&emsp;10 / 10</div>
      <div class=""progress-track"">
        <div class=""progress-fill"" style=""width:100%""></div>
      </div>
    </div>","0","page4","","","","","","","","","","","","","","","","","","","","","","","","","","","","","","","","","","","","","","","","","","","","","","","","","","","","","","","","","","","","","","","","","","","","","","","","","","","","","","","","","","","",""
"html-button-response","62","827384","0.0-62.0","P1779350645110_OHY56M","1135","
        <div style=""text-align:center;padding-bottom:60px;"">
          <img src=""final_stimfile/greenisland_02_brynjudalur.jpg"" class=""stim-trial"" alt=""刺激圖片"">
          <p style=""margin-top:14px;"">您剛才選擇的答案是 <strong>冰島</strong>，請問您對此選項的信心如何？</p>
          <p style=""color:#888;font-size:13px;"">（1 分 = 非常沒信心；5 分 = 非常有信心）</p>
        </div>
    <div class=""progress-wrap"">
      <div class=""progress-label"">第 1 段&emsp;10 / 10</div>
      <div class=""progress-track"">
        <div class=""progress-fill"" style=""width:100%""></div>
      </div>
    </div>","4","trial","","","","","level2","0","0","0","10","10","greenisland_02_brynjudalur","冰島","冰島","true","4","冰島","true","5","58151","13679","12031","1135","","","","","","","","","","","","","","","","","","","","","","","","","","","","","","","","","","","","","","","","","","","","","","","","","","","","","","","","","","","","","",""
"html-button-response","63","866506","0.0-63.0","P1779350645110_OHY56M","39114","
    <div class=""scale-wrap"">
      <div style=""text-align:center;margin-bottom:20px;"">
        <img src=""stimulus/level2.png""
             style=""width:80px;height:80px;object-fit:contain;border-radius:50%;""
             alt="""">
        <p style=""margin-top:10px;font-size:15px;"">以下請根據您和這位機器人互動的整體印象來回答</p>
      </div>

      
    <div class=""scale-row"">
      <span class=""scale-lbl left"">虛假的</span>
      <div class=""scale-radios"">
    <label>
      <input type=""radio"" name=""godspeed_1"" value=""1"">
      <span>1</span>
    </label>
    <label>
      <input type=""radio"" name=""godspeed_1"" value=""2"">
      <span>2</span>
    </label>
    <label>
      <input type=""radio"" name=""godspeed_1"" value=""3"">
      <span>3</span>
    </label>
    <label>
      <input type=""radio"" name=""godspeed_1"" value=""4"">
      <span>4</span>
    </label>
    <label>
      <input type=""radio"" name=""godspeed_1"" value=""5"">
      <span>5</span>
    </label></div>
      <span class=""scale-lbl right"">自然的</span>
    </div>
    <div class=""scale-row"">
      <span class=""scale-lbl left"">似機械的</span>
      <div class=""scale-radios"">
    <label>
      <input type=""radio"" name=""godspeed_2"" value=""1"">
      <span>1</span>
    </label>
    <label>
      <input type=""radio"" name=""godspeed_2"" value=""2"">
      <span>2</span>
    </label>
    <label>
      <input type=""radio"" name=""godspeed_2"" value=""3"">
      <span>3</span>
    </label>
    <label>
      <input type=""radio"" name=""godspeed_2"" value=""4"">
      <span>4</span>
    </label>
    <label>
      <input type=""radio"" name=""godspeed_2"" value=""5"">
      <span>5</span>
    </label></div>
      <span class=""scale-lbl right"">似人類的</span>
    </div>
    <div class=""scale-row"">
      <span class=""scale-lbl left"">無意識的</span>
      <div class=""scale-radios"">
    <label>
      <input type=""radio"" name=""godspeed_3"" value=""1"">
      <span>1</span>
    </label>
    <label>
      <input type=""radio"" name=""godspeed_3"" value=""2"">
      <span>2</span>
    </label>
    <label>
      <input type=""radio"" name=""godspeed_3"" value=""3"">
      <span>3</span>
    </label>
    <label>
      <input type=""radio"" name=""godspeed_3"" value=""4"">
      <span>4</span>
    </label>
    <label>
      <input type=""radio"" name=""godspeed_3"" value=""5"">
      <span>5</span>
    </label></div>
      <span class=""scale-lbl right"">有意識的</span>
    </div>
    <div class=""scale-row"">
      <span class=""scale-lbl left"">人工的</span>
      <div class=""scale-radios"">
    <label>
      <input type=""radio"" name=""godspeed_4"" value=""1"">
      <span>1</span>
    </label>
    <label>
      <input type=""radio"" name=""godspeed_4"" value=""2"">
      <span>2</span>
    </label>
    <label>
      <input type=""radio"" name=""godspeed_4"" value=""3"">
      <span>3</span>
    </label>
    <label>
      <input type=""radio"" name=""godspeed_4"" value=""4"">
      <span>4</span>
    </label>
    <label>
      <input type=""radio"" name=""godspeed_4"" value=""5"">
      <span>5</span>
    </label></div>
      <span class=""scale-lbl right"">逼真的</span>
    </div>
    <div class=""scale-row"">
      <span class=""scale-lbl left"">不喜歡</span>
      <div class=""scale-radios"">
    <label>
      <input type=""radio"" name=""godspeed_5"" value=""1"">
      <span>1</span>
    </label>
    <label>
      <input type=""radio"" name=""godspeed_5"" value=""2"">
      <span>2</span>
    </label>
    <label>
      <input type=""radio"" name=""godspeed_5"" value=""3"">
      <span>3</span>
    </label>
    <label>
      <input type=""radio"" name=""godspeed_5"" value=""4"">
      <span>4</span>
    </label>
    <label>
      <input type=""radio"" name=""godspeed_5"" value=""5"">
      <span>5</span>
    </label></div>
      <span class=""scale-lbl right"">喜歡</span>
    </div>

      <div style=""border-top:1px solid #ddd;margin:14px 0;""></div>

      
    <div class=""scale-row"">
      <span class=""scale-lbl left"">不友好的</span>
      <div class=""scale-radios"">
    <label>
      <input type=""radio"" name=""godspeed_6"" value=""1"">
      <span>1</span>
    </label>
    <label>
      <input type=""radio"" name=""godspeed_6"" value=""2"">
      <span>2</span>
    </label>
    <label>
      <input type=""radio"" name=""godspeed_6"" value=""3"">
      <span>3</span>
    </label>
    <label>
      <input type=""radio"" name=""godspeed_6"" value=""4"">
      <span>4</span>
    </label>
    <label>
      <input type=""radio"" name=""godspeed_6"" value=""5"">
      <span>5</span>
    </label></div>
      <span class=""scale-lbl right"">友好的</span>
    </div>
    <div class=""scale-row"">
      <span class=""scale-lbl left"">不親切的</span>
      <div class=""scale-radios"">
    <label>
      <input type=""radio"" name=""godspeed_7"" value=""1"">
      <span>1</span>
    </label>
    <label>
      <input type=""radio"" name=""godspeed_7"" value=""2"">
      <span>2</span>
    </label>
    <label>
      <input type=""radio"" name=""godspeed_7"" value=""3"">
      <span>3</span>
    </label>
    <label>
      <input type=""radio"" name=""godspeed_7"" value=""4"">
      <span>4</span>
    </label>
    <label>
      <input type=""radio"" name=""godspeed_7"" value=""5"">
      <span>5</span>
    </label></div>
      <span class=""scale-lbl right"">親切的</span>
    </div>
    <div class=""scale-row"">
      <span class=""scale-lbl left"">不愉快的</span>
      <div class=""scale-radios"">
    <label>
      <input type=""radio"" name=""godspeed_8"" value=""1"">
      <span>1</span>
    </label>
    <label>
      <input type=""radio"" name=""godspeed_8"" value=""2"">
      <span>2</span>
    </label>
    <label>
      <input type=""radio"" name=""godspeed_8"" value=""3"">
      <span>3</span>
    </label>
    <label>
      <input type=""radio"" name=""godspeed_8"" value=""4"">
      <span>4</span>
    </label>
    <label>
      <input type=""radio"" name=""godspeed_8"" value=""5"">
      <span>5</span>
    </label></div>
      <span class=""scale-lbl right"">愉快的</span>
    </div>
    <div class=""scale-row"">
      <span class=""scale-lbl left"">惡劣的</span>
      <div class=""scale-radios"">
    <label>
      <input type=""radio"" name=""godspeed_9"" value=""1"">
      <span>1</span>
    </label>
    <label>
      <input type=""radio"" name=""godspeed_9"" value=""2"">
      <span>2</span>
    </label>
    <label>
      <input type=""radio"" name=""godspeed_9"" value=""3"">
      <span>3</span>
    </label>
    <label>
      <input type=""radio"" name=""godspeed_9"" value=""4"">
      <span>4</span>
    </label>
    <label>
      <input type=""radio"" name=""godspeed_9"" value=""5"">
      <span>5</span>
    </label></div>
      <span class=""scale-lbl right"">良好的</span>
    </div>

      <div style=""border-top:1px solid #ddd;margin:14px 0;""></div>

      <p style=""font-size:14px;color:#555;margin:6px 0 10px;"">
        整體而言，請問您有多相信本輪機器人所提供的答案？
      </p>
      
    <div class=""scale-row"">
      <span class=""scale-lbl left"">非常不相信</span>
      <div class=""scale-radios"">
    <label>
      <input type=""radio"" name=""trust"" value=""1"">
      <span>1</span>
    </label>
    <label>
      <input type=""radio"" name=""trust"" value=""2"">
      <span>2</span>
    </label>
    <label>
      <input type=""radio"" name=""trust"" value=""3"">
      <span>3</span>
    </label>
    <label>
      <input type=""radio"" name=""trust"" value=""4"">
      <span>4</span>
    </label>
    <label>
      <input type=""radio"" name=""trust"" value=""5"">
      <span>5</span>
    </label></div>
      <span class=""scale-lbl right"">非常相信</span>
    </div>

      <div id=""scale-error"">請回答所有題目後再送出</div>
    </div>","0","scale","","","","","level2","0","0","0","","","","","","","","","","","","","","","4","3","1","2","4","4","4","4","4","4","","","","","","","","","","","","","","","","","","","","","","","","","","","","","","","","","","","","","","","","","","","","","","","","","","","",""
"html-button-response","64","868970","0.0-64.0","P1779350645110_OHY56M","2462","
      <div class=""page-wrap"">
        <h2>第 2 / 4 段</h2>
        <p style=""font-size:18px;color:#555;"">休息一下，準備好後請按「下一頁」繼續</p>
      </div>","0","rest","","","","","","","","","","","","","","","","","","","","","","","","","","","","","","","","","","","","","","","","","","","","","","","","","","","","","","","","","","","","","","","","","","","","","","","","","","","","","","","","","","","",""
"html-button-response","65","878576","0.0-65.0","P1779350645110_OHY56M","9582","
      <div class=""page-wrap"">
        <p style=""font-size:18px;"">接下來您將與以下機器人進行對話</p>
        <img src=""stimulus/level1.png""
             class=""robot-intro-img"" alt=""機器人頭像"">
        <p style=""font-size:14px;color:#888;margin-top:14px;"">請等待五秒後，點按下一頁</p>
      </div>","0","robot_intro","","","","","level1","","","","","","","","","","","","","","","","","","","","","","","","","","","","","","","","","","","","","","","","","","","","","","","","","","","","","","","","","","","","","","","","","","","","","","","","","","","","","","",""
"html-button-response","66","933049","0.0-66.0","P1779350645110_OHY56M","54472","
      <div style=""text-align:center;padding-bottom:60px;"">
        <img src=""final_stimfile/spain_02_2017_08_41_adarra_aballarri.jpg"" class=""stim-trial"" alt=""刺激圖片"">
        <p style=""margin-top:14px;"">請猜測您認為這張照片最可能拍攝的地點</p>
      </div>
    <div class=""progress-wrap"">
      <div class=""progress-label"">第 2 段&emsp;1 / 10</div>
      <div class=""progress-track"">
        <div class=""progress-fill"" style=""width:10%""></div>
      </div>
    </div>","3","page1","","","","","","","","","","","","","","","","","","","","","","","","","","","","","","","","","","","","","","","","","","","","","","","","","","","","","","","","","","","","","","","","","","","","","","","","","","","","","","","","","","","",""
"html-button-response","67","934608","0.0-67.0","P1779350645110_OHY56M","1558","
        <div style=""text-align:center;padding-bottom:60px;"">
          <img src=""final_stimfile/spain_02_2017_08_41_adarra_aballarri.jpg"" class=""stim-trial"" alt=""刺激圖片"">
          <p style=""margin-top:14px;"">您剛才選擇的答案是 <strong>紐西蘭</strong>，請問您對此選項的信心如何？</p>
          <p style=""color:#888;font-size:13px;"">（1 分 = 非常沒信心；5 分 = 非常有信心）</p>
        </div>
    <div class=""progress-wrap"">
      <div class=""progress-label"">第 2 段&emsp;1 / 10</div>
      <div class=""progress-track"">
        <div class=""progress-fill"" style=""width:10%""></div>
      </div>
    </div>","2","page2","","","","","","","","","","","","","","","","","","","","","","","","","","","","","","","","","","","","","","","","","","","","","","","","","","","","","","","","","","","","","","","","","","","","","","","","","","","","","","","","","","","",""
"html-button-response","68","987657","0.0-68.0","P1779350645110_OHY56M","53048","
      <div style=""display:flex;height:calc(100vh - 130px);min-height:400px;"">

        <!-- ── Left 50 %: stimulus image ── -->
        <div style=""flex:0 0 50%;display:flex;align-items:center;justify-content:center;padding:28px 16px 28px 28px;"">
          <img src=""final_stimfile/spain_02_2017_08_41_adarra_aballarri.jpg""
               style=""max-width:100%;max-height:100%;object-fit:contain;border-radius:6px;""
               alt=""刺激圖片"">
        </div>

        <!-- ── Right 50 %: top (avatar) + bottom (chat) ── -->
        <div style=""flex:1;display:flex;flex-direction:column;padding:16px 28px 16px 16px;min-width:0;"">

          <!-- Top 40 %: robot avatar, centred -->
          <div style=""flex:0 0 40%;display:flex;flex-direction:column;align-items:center;justify-content:center;gap:10px;"">
            <img src=""stimulus/level1.png""
                 style=""width:120px;height:120px;object-fit:contain;border-radius:50%;""
                 alt="""">
            <span style=""font-size:14px;color:#555;"">機器人 B</span>
          </div>

          <!-- Bottom 60 %: chat messages -->
          <div style=""flex:1;overflow-y:auto;padding-top:6px;"">
            <div class=""chat-messages"" id=""chat-msg-area""></div>
          </div>

        </div>
      </div>
    <div class=""progress-wrap"">
      <div class=""progress-label"">第 2 段&emsp;1 / 10</div>
      <div class=""progress-track"">
        <div class=""progress-fill"" style=""width:10%""></div>
      </div>
    </div>","0","page3","","","","","","","","","","","","","","","","","","","","","","","","","","","","","","","","","","","","","","","","","","","","","","","","","","","","","","","","","","","","","","","","","","","","","","","","","","","","","","","","","","","",""
"html-button-response","69","991144","0.0-69.0","P1779350645110_OHY56M","3486","
        <div style=""text-align:center;padding-bottom:60px;"">
          <img src=""final_stimfile/spain_02_2017_08_41_adarra_aballarri.jpg"" class=""stim-trial"" alt=""刺激圖片"">
          <p style=""margin-top:14px;"">
            您上次選擇的是 <strong>紐西蘭</strong>，
            機器人認為這裡是 <strong>西班牙</strong>，<br>
            請再次猜測您認為這張照片最可能拍攝的地點
          </p>
        </div>
    <div class=""progress-wrap"">
      <div class=""progress-label"">第 2 段&emsp;1 / 10</div>
      <div class=""progress-track"">
        <div class=""progress-fill"" style=""width:10%""></div>
      </div>
    </div>","3","page4","","","","","","","","","","","","","","","","","","","","","","","","","","","","","","","","","","","","","","","","","","","","","","","","","","","","","","","","","","","","","","","","","","","","","","","","","","","","","","","","","","","",""
"html-button-response","70","992145","0.0-70.0","P1779350645110_OHY56M","999","
        <div style=""text-align:center;padding-bottom:60px;"">
          <img src=""final_stimfile/spain_02_2017_08_41_adarra_aballarri.jpg"" class=""stim-trial"" alt=""刺激圖片"">
          <p style=""margin-top:14px;"">您剛才選擇的答案是 <strong>紐西蘭</strong>，請問您對此選項的信心如何？</p>
          <p style=""color:#888;font-size:13px;"">（1 分 = 非常沒信心；5 分 = 非常有信心）</p>
        </div>
    <div class=""progress-wrap"">
      <div class=""progress-label"">第 2 段&emsp;1 / 10</div>
      <div class=""progress-track"">
        <div class=""progress-fill"" style=""width:10%""></div>
      </div>
    </div>","2","trial","","","","","level1","0","1","1","1","11","spain_02_2017_08_41_adarra_aballarri","西班牙","紐西蘭","false","3","紐西蘭","false","3","54472","3486","53048","999","","","","","","","","","","","","","","","","","","","","","","","","","","","","","","","","","","","","","","","","","","","","","","","","","","","","","","","","","","","","","",""
"html-button-response","71","1068859","0.0-71.0","P1779350645110_OHY56M","76713","
      <div style=""text-align:center;padding-bottom:60px;"">
        <img src=""final_stimfile/italy_01_san_benigno_canavese-torre_dellabbazia_della_fruttuaria.jpg"" class=""stim-trial"" alt=""刺激圖片"">
        <p style=""margin-top:14px;"">請猜測您認為這張照片最可能拍攝的地點</p>
      </div>
    <div class=""progress-wrap"">
      <div class=""progress-label"">第 2 段&emsp;2 / 10</div>
      <div class=""progress-track"">
        <div class=""progress-fill"" style=""width:20%""></div>
      </div>
    </div>","0","page1","","","","","","","","","","","","","","","","","","","","","","","","","","","","","","","","","","","","","","","","","","","","","","","","","","","","","","","","","","","","","","","","","","","","","","","","","","","","","","","","","","","",""
"html-button-response","72","1070507","0.0-72.0","P1779350645110_OHY56M","1647","
        <div style=""text-align:center;padding-bottom:60px;"">
          <img src=""final_stimfile/italy_01_san_benigno_canavese-torre_dellabbazia_della_fruttuaria.jpg"" class=""stim-trial"" alt=""刺激圖片"">
          <p style=""margin-top:14px;"">您剛才選擇的答案是 <strong>義大利</strong>，請問您對此選項的信心如何？</p>
          <p style=""color:#888;font-size:13px;"">（1 分 = 非常沒信心；5 分 = 非常有信心）</p>
        </div>
    <div class=""progress-wrap"">
      <div class=""progress-label"">第 2 段&emsp;2 / 10</div>
      <div class=""progress-track"">
        <div class=""progress-fill"" style=""width:20%""></div>
      </div>
    </div>","2","page2","","","","","","","","","","","","","","","","","","","","","","","","","","","","","","","","","","","","","","","","","","","","","","","","","","","","","","","","","","","","","","","","","","","","","","","","","","","","","","","","","","","",""
"html-button-response","73","1083936","0.0-73.0","P1779350645110_OHY56M","13428","
      <div style=""display:flex;height:calc(100vh - 130px);min-height:400px;"">

        <!-- ── Left 50 %: stimulus image ── -->
        <div style=""flex:0 0 50%;display:flex;align-items:center;justify-content:center;padding:28px 16px 28px 28px;"">
          <img src=""final_stimfile/italy_01_san_benigno_canavese-torre_dellabbazia_della_fruttuaria.jpg""
               style=""max-width:100%;max-height:100%;object-fit:contain;border-radius:6px;""
               alt=""刺激圖片"">
        </div>

        <!-- ── Right 50 %: top (avatar) + bottom (chat) ── -->
        <div style=""flex:1;display:flex;flex-direction:column;padding:16px 28px 16px 16px;min-width:0;"">

          <!-- Top 40 %: robot avatar, centred -->
          <div style=""flex:0 0 40%;display:flex;flex-direction:column;align-items:center;justify-content:center;gap:10px;"">
            <img src=""stimulus/level1.png""
                 style=""width:120px;height:120px;object-fit:contain;border-radius:50%;""
                 alt="""">
            <span style=""font-size:14px;color:#555;"">機器人 B</span>
          </div>

          <!-- Bottom 60 %: chat messages -->
          <div style=""flex:1;overflow-y:auto;padding-top:6px;"">
            <div class=""chat-messages"" id=""chat-msg-area""></div>
          </div>

        </div>
      </div>
    <div class=""progress-wrap"">
      <div class=""progress-label"">第 2 段&emsp;2 / 10</div>
      <div class=""progress-track"">
        <div class=""progress-fill"" style=""width:20%""></div>
      </div>
    </div>","0","page3","","","","","","","","","","","","","","","","","","","","","","","","","","","","","","","","","","","","","","","","","","","","","","","","","","","","","","","","","","","","","","","","","","","","","","","","","","","","","","","","","","","",""
"html-button-response","74","1085984","0.0-74.0","P1779350645110_OHY56M","2047","
        <div style=""text-align:center;padding-bottom:60px;"">
          <img src=""final_stimfile/italy_01_san_benigno_canavese-torre_dellabbazia_della_fruttuaria.jpg"" class=""stim-trial"" alt=""刺激圖片"">
          <p style=""margin-top:14px;"">
            您上次選擇的是 <strong>義大利</strong>，
            機器人認為這裡是 <strong>義大利</strong>，<br>
            請再次猜測您認為這張照片最可能拍攝的地點
          </p>
        </div>
    <div class=""progress-wrap"">
      <div class=""progress-label"">第 2 段&emsp;2 / 10</div>
      <div class=""progress-track"">
        <div class=""progress-fill"" style=""width:20%""></div>
      </div>
    </div>","0","page4","","","","","","","","","","","","","","","","","","","","","","","","","","","","","","","","","","","","","","","","","","","","","","","","","","","","","","","","","","","","","","","","","","","","","","","","","","","","","","","","","","","",""
"html-button-response","75","1086816","0.0-75.0","P1779350645110_OHY56M","831","
        <div style=""text-align:center;padding-bottom:60px;"">
          <img src=""final_stimfile/italy_01_san_benigno_canavese-torre_dellabbazia_della_fruttuaria.jpg"" class=""stim-trial"" alt=""刺激圖片"">
          <p style=""margin-top:14px;"">您剛才選擇的答案是 <strong>義大利</strong>，請問您對此選項的信心如何？</p>
          <p style=""color:#888;font-size:13px;"">（1 分 = 非常沒信心；5 分 = 非常有信心）</p>
        </div>
    <div class=""progress-wrap"">
      <div class=""progress-label"">第 2 段&emsp;2 / 10</div>
      <div class=""progress-track"">
        <div class=""progress-fill"" style=""width:20%""></div>
      </div>
    </div>","3","trial","","","","","level1","0","1","1","2","12","italy_01_san_benigno_canavese-torre_dellabbazia_della_fruttuaria","義大利","義大利","true","3","義大利","true","4","76713","2047","13428","831","","","","","","","","","","","","","","","","","","","","","","","","","","","","","","","","","","","","","","","","","","","","","","","","","","","","","","","","","","","","","",""
"html-button-response","76","1186472","0.0-76.0","P1779350645110_OHY56M","99655","
      <div style=""text-align:center;padding-bottom:60px;"">
        <img src=""final_stimfile/argentina_02_elchaltenfitzroy.jpg"" class=""stim-trial"" alt=""刺激圖片"">
        <p style=""margin-top:14px;"">請猜測您認為這張照片最可能拍攝的地點</p>
      </div>
    <div class=""progress-wrap"">
      <div class=""progress-label"">第 2 段&emsp;3 / 10</div>
      <div class=""progress-track"">
        <div class=""progress-fill"" style=""width:30%""></div>
      </div>
    </div>","1","page1","","","","","","","","","","","","","","","","","","","","","","","","","","","","","","","","","","","","","","","","","","","","","","","","","","","","","","","","","","","","","","","","","","","","","","","","","","","","","","","","","","","",""
"html-button-response","77","1187576","0.0-77.0","P1779350645110_OHY56M","1103","
        <div style=""text-align:center;padding-bottom:60px;"">
          <img src=""final_stimfile/argentina_02_elchaltenfitzroy.jpg"" class=""stim-trial"" alt=""刺激圖片"">
          <p style=""margin-top:14px;"">您剛才選擇的答案是 <strong>紐西蘭</strong>，請問您對此選項的信心如何？</p>
          <p style=""color:#888;font-size:13px;"">（1 分 = 非常沒信心；5 分 = 非常有信心）</p>
        </div>
    <div class=""progress-wrap"">
      <div class=""progress-label"">第 2 段&emsp;3 / 10</div>
      <div class=""progress-track"">
        <div class=""progress-fill"" style=""width:30%""></div>
      </div>
    </div>","1","page2","","","","","","","","","","","","","","","","","","","","","","","","","","","","","","","","","","","","","","","","","","","","","","","","","","","","","","","","","","","","","","","","","","","","","","","","","","","","","","","","","","","",""
"html-button-response","78","1221753","0.0-78.0","P1779350645110_OHY56M","34175","
      <div style=""display:flex;height:calc(100vh - 130px);min-height:400px;"">

        <!-- ── Left 50 %: stimulus image ── -->
        <div style=""flex:0 0 50%;display:flex;align-items:center;justify-content:center;padding:28px 16px 28px 28px;"">
          <img src=""final_stimfile/argentina_02_elchaltenfitzroy.jpg""
               style=""max-width:100%;max-height:100%;object-fit:contain;border-radius:6px;""
               alt=""刺激圖片"">
        </div>

        <!-- ── Right 50 %: top (avatar) + bottom (chat) ── -->
        <div style=""flex:1;display:flex;flex-direction:column;padding:16px 28px 16px 16px;min-width:0;"">

          <!-- Top 40 %: robot avatar, centred -->
          <div style=""flex:0 0 40%;display:flex;flex-direction:column;align-items:center;justify-content:center;gap:10px;"">
            <img src=""stimulus/level1.png""
                 style=""width:120px;height:120px;object-fit:contain;border-radius:50%;""
                 alt="""">
            <span style=""font-size:14px;color:#555;"">機器人 B</span>
          </div>

          <!-- Bottom 60 %: chat messages -->
          <div style=""flex:1;overflow-y:auto;padding-top:6px;"">
            <div class=""chat-messages"" id=""chat-msg-area""></div>
          </div>

        </div>
      </div>
    <div class=""progress-wrap"">
      <div class=""progress-label"">第 2 段&emsp;3 / 10</div>
      <div class=""progress-track"">
        <div class=""progress-fill"" style=""width:30%""></div>
      </div>
    </div>","0","page3","","","","","","","","","","","","","","","","","","","","","","","","","","","","","","","","","","","","","","","","","","","","","","","","","","","","","","","","","","","","","","","","","","","","","","","","","","","","","","","","","","","",""
"html-button-response","79","1223640","0.0-79.0","P1779350645110_OHY56M","1885","
        <div style=""text-align:center;padding-bottom:60px;"">
          <img src=""final_stimfile/argentina_02_elchaltenfitzroy.jpg"" class=""stim-trial"" alt=""刺激圖片"">
          <p style=""margin-top:14px;"">
            您上次選擇的是 <strong>紐西蘭</strong>，
            機器人認為這裡是 <strong>阿根廷</strong>，<br>
            請再次猜測您認為這張照片最可能拍攝的地點
          </p>
        </div>
    <div class=""progress-wrap"">
      <div class=""progress-label"">第 2 段&emsp;3 / 10</div>
      <div class=""progress-track"">
        <div class=""progress-fill"" style=""width:30%""></div>
      </div>
    </div>","0","page4","","","","","","","","","","","","","","","","","","","","","","","","","","","","","","","","","","","","","","","","","","","","","","","","","","","","","","","","","","","","","","","","","","","","","","","","","","","","","","","","","","","",""
"html-button-response","80","1224344","0.0-80.0","P1779350645110_OHY56M","703","
        <div style=""text-align:center;padding-bottom:60px;"">
          <img src=""final_stimfile/argentina_02_elchaltenfitzroy.jpg"" class=""stim-trial"" alt=""刺激圖片"">
          <p style=""margin-top:14px;"">您剛才選擇的答案是 <strong>阿根廷</strong>，請問您對此選項的信心如何？</p>
          <p style=""color:#888;font-size:13px;"">（1 分 = 非常沒信心；5 分 = 非常有信心）</p>
        </div>
    <div class=""progress-wrap"">
      <div class=""progress-label"">第 2 段&emsp;3 / 10</div>
      <div class=""progress-track"">
        <div class=""progress-fill"" style=""width:30%""></div>
      </div>
    </div>","2","trial","","","","","level1","0","1","1","3","13","argentina_02_elchaltenfitzroy","阿根廷","紐西蘭","false","2","阿根廷","true","3","99655","1885","34175","703","","","","","","","","","","","","","","","","","","","","","","","","","","","","","","","","","","","","","","","","","","","","","","","","","","","","","","","","","","","","","",""
"html-button-response","81","1312981","0.0-81.0","P1779350645110_OHY56M","88636","
      <div style=""text-align:center;padding-bottom:60px;"">
        <img src=""final_stimfile/norway_02_danvikskanalen_2011x.jpg"" class=""stim-trial"" alt=""刺激圖片"">
        <p style=""margin-top:14px;"">請猜測您認為這張照片最可能拍攝的地點</p>
      </div>
    <div class=""progress-wrap"">
      <div class=""progress-label"">第 2 段&emsp;4 / 10</div>
      <div class=""progress-track"">
        <div class=""progress-fill"" style=""width:40%""></div>
      </div>
    </div>","2","page1","","","","","","","","","","","","","","","","","","","","","","","","","","","","","","","","","","","","","","","","","","","","","","","","","","","","","","","","","","","","","","","","","","","","","","","","","","","","","","","","","","","",""
"html-button-response","82","1315417","0.0-82.0","P1779350645110_OHY56M","2434","
        <div style=""text-align:center;padding-bottom:60px;"">
          <img src=""final_stimfile/norway_02_danvikskanalen_2011x.jpg"" class=""stim-trial"" alt=""刺激圖片"">
          <p style=""margin-top:14px;"">您剛才選擇的答案是 <strong>加拿大</strong>，請問您對此選項的信心如何？</p>
          <p style=""color:#888;font-size:13px;"">（1 分 = 非常沒信心；5 分 = 非常有信心）</p>
        </div>
    <div class=""progress-wrap"">
      <div class=""progress-label"">第 2 段&emsp;4 / 10</div>
      <div class=""progress-track"">
        <div class=""progress-fill"" style=""width:40%""></div>
      </div>
    </div>","1","page2","","","","","","","","","","","","","","","","","","","","","","","","","","","","","","","","","","","","","","","","","","","","","","","","","","","","","","","","","","","","","","","","","","","","","","","","","","","","","","","","","","","",""
"html-button-response","83","1342176","0.0-83.0","P1779350645110_OHY56M","26759","
      <div style=""display:flex;height:calc(100vh - 130px);min-height:400px;"">

        <!-- ── Left 50 %: stimulus image ── -->
        <div style=""flex:0 0 50%;display:flex;align-items:center;justify-content:center;padding:28px 16px 28px 28px;"">
          <img src=""final_stimfile/norway_02_danvikskanalen_2011x.jpg""
               style=""max-width:100%;max-height:100%;object-fit:contain;border-radius:6px;""
               alt=""刺激圖片"">
        </div>

        <!-- ── Right 50 %: top (avatar) + bottom (chat) ── -->
        <div style=""flex:1;display:flex;flex-direction:column;padding:16px 28px 16px 16px;min-width:0;"">

          <!-- Top 40 %: robot avatar, centred -->
          <div style=""flex:0 0 40%;display:flex;flex-direction:column;align-items:center;justify-content:center;gap:10px;"">
            <img src=""stimulus/level1.png""
                 style=""width:120px;height:120px;object-fit:contain;border-radius:50%;""
                 alt="""">
            <span style=""font-size:14px;color:#555;"">機器人 B</span>
          </div>

          <!-- Bottom 60 %: chat messages -->
          <div style=""flex:1;overflow-y:auto;padding-top:6px;"">
            <div class=""chat-messages"" id=""chat-msg-area""></div>
          </div>

        </div>
      </div>
    <div class=""progress-wrap"">
      <div class=""progress-label"">第 2 段&emsp;4 / 10</div>
      <div class=""progress-track"">
        <div class=""progress-fill"" style=""width:40%""></div>
      </div>
    </div>","0","page3","","","","","","","","","","","","","","","","","","","","","","","","","","","","","","","","","","","","","","","","","","","","","","","","","","","","","","","","","","","","","","","","","","","","","","","","","","","","","","","","","","","",""
"html-button-response","84","1387576","0.0-84.0","P1779350645110_OHY56M","45399","
        <div style=""text-align:center;padding-bottom:60px;"">
          <img src=""final_stimfile/norway_02_danvikskanalen_2011x.jpg"" class=""stim-trial"" alt=""刺激圖片"">
          <p style=""margin-top:14px;"">
            您上次選擇的是 <strong>加拿大</strong>，
            機器人認為這裡是 <strong>挪威</strong>，<br>
            請再次猜測您認為這張照片最可能拍攝的地點
          </p>
        </div>
    <div class=""progress-wrap"">
      <div class=""progress-label"">第 2 段&emsp;4 / 10</div>
      <div class=""progress-track"">
        <div class=""progress-fill"" style=""width:40%""></div>
      </div>
    </div>","0","page4","","","","","","","","","","","","","","","","","","","","","","","","","","","","","","","","","","","","","","","","","","","","","","","","","","","","","","","","","","","","","","","","","","","","","","","","","","","","","","","","","","","",""
"html-button-response","85","1388336","0.0-85.0","P1779350645110_OHY56M","759","
        <div style=""text-align:center;padding-bottom:60px;"">
          <img src=""final_stimfile/norway_02_danvikskanalen_2011x.jpg"" class=""stim-trial"" alt=""刺激圖片"">
          <p style=""margin-top:14px;"">您剛才選擇的答案是 <strong>挪威</strong>，請問您對此選項的信心如何？</p>
          <p style=""color:#888;font-size:13px;"">（1 分 = 非常沒信心；5 分 = 非常有信心）</p>
        </div>
    <div class=""progress-wrap"">
      <div class=""progress-label"">第 2 段&emsp;4 / 10</div>
      <div class=""progress-track"">
        <div class=""progress-fill"" style=""width:40%""></div>
      </div>
    </div>","1","trial","","","","","level1","0","1","1","4","14","norway_02_danvikskanalen_2011x","挪威","加拿大","false","2","挪威","true","2","88636","45399","26759","759","","","","","","","","","","","","","","","","","","","","","","","","","","","","","","","","","","","","","","","","","","","","","","","","","","","","","","","","","","","","","",""
